participant,block,trial,screenID,setsize,nTarget,nDistractor,layout,colorCon,radius,cueType,cueColor,condition,ratio,correct,acc,RT
1,0,0,cue,12,6,6,intermixed,random,large,location,,positive,even,NA,NA,NA
1,0,0,judge,12,6,6,intermixed,random,large,location,NA,positive,even,arrowdown,1,1254
1,0,1,cue,12,6,6,intermixed,random,large,location,,positive,even,NA,NA,NA
1,0,1,judge,12,6,6,intermixed,random,large,location,NA,positive,even,arrowup,1,3965
1,0,2,cue,12,6,6,intermixed,random,large,location,,positive,even,NA,NA,NA
1,0,2,judge,12,6,6,intermixed,random,large,location,NA,positive,even,arrowdown,1,2405
1,0,3,cue,12,6,6,intermixed,random,large,location,,positive,even,NA,NA,NA
1,0,3,judge,12,6,6,intermixed,random,large,location,NA,positive,even,arrowdown,1,1658
1,0,4,cue,12,6,6,intermixed,random,large,location,,positive,even,NA,NA,NA
1,0,4,judge,12,6,6,intermixed,random,large,location,NA,positive,even,arrowup,1,860
1,0,5,cue,12,6,6,intermixed,random,large,location,,positive,even,NA,NA,NA
1,0,5,judge,12,6,6,intermixed,random,large,location,NA,positive,even,arrowdown,1,811
1,0,6,cue,12,6,6,intermixed,random,large,location,,positive,even,NA,NA,NA
1,0,6,judge,12,6,6,intermixed,random,large,location,NA,positive,even,arrowup,1,656
1,0,7,cue,12,6,6,intermixed,random,large,location,,positive,even,NA,NA,NA
1,0,7,judge,12,6,6,intermixed,random,large,location,NA,positive,even,arrowdown,1,517
1,0,8,cue,12,6,6,intermixed,random,large,location,,positive,even,NA,NA,NA
1,0,8,judge,12,6,6,intermixed,random,large,location,NA,positive,even,arrowdown,1,1117
1,0,9,cue,12,6,6,intermixed,random,large,location,,positive,even,NA,NA,NA
1,0,9,judge,12,6,6,intermixed,random,large,location,NA,positive,even,arrowup,1,1671
1,0,10,cue,12,6,6,intermixed,random,large,location,,positive,even,NA,NA,NA
1,0,10,judge,12,6,6,intermixed,random,large,location,NA,positive,even,arrowup,1,1390
1,0,11,cue,12,6,6,intermixed,random,large,location,,positive,even,NA,NA,NA
1,0,11,judge,12,6,6,intermixed,random,large,location,NA,positive,even,arrowup,1,1297
1,0,12,cue,12,6,6,intermixed,random,large,location,,positive,even,NA,NA,NA
1,0,12,judge,12,6,6,intermixed,random,large,location,NA,positive,even,arrowdown,1,854
1,0,13,cue,12,6,6,intermixed,random,large,location,,positive,even,NA,NA,NA
1,0,13,judge,12,6,6,intermixed,random,large,location,NA,positive,even,arrowup,1,657
1,0,14,cue,12,6,6,intermixed,random,large,location,,positive,even,NA,NA,NA
1,0,14,judge,12,6,6,intermixed,random,large,location,NA,positive,even,arrowup,1,749
1,0,15,cue,12,6,6,intermixed,random,large,location,,positive,even,NA,NA,NA
1,0,15,judge,12,6,6,intermixed,random,large,location,NA,positive,even,arrowdown,1,974
1,0,16,cue,12,6,6,intermixed,random,large,location,,positive,even,NA,NA,NA
1,0,16,judge,12,6,6,intermixed,random,large,location,NA,positive,even,arrowup,1,710
1,0,17,cue,12,6,6,intermixed,random,large,location,,positive,even,NA,NA,NA
1,0,17,judge,12,6,6,intermixed,random,large,location,NA,positive,even,arrowdown,1,1762
1,0,18,cue,12,6,6,intermixed,random,large,location,,positive,even,NA,NA,NA
1,0,18,judge,12,6,6,intermixed,random,large,location,NA,positive,even,arrowup,1,1142
1,0,19,cue,12,6,6,intermixed,random,large,location,,positive,even,NA,NA,NA
1,0,19,judge,12,6,6,intermixed,random,large,location,NA,positive,even,arrowdown,1,1639
1,0,20,cue,12,6,6,intermixed,random,large,location,,positive,even,NA,NA,NA
1,0,20,judge,12,6,6,intermixed,random,large,location,NA,positive,even,arrowup,1,1552
1,0,21,cue,12,6,6,intermixed,random,large,location,,positive,even,NA,NA,NA
1,0,21,judge,12,6,6,intermixed,random,large,location,NA,positive,even,arrowdown,1,1549
1,0,22,cue,12,6,6,intermixed,random,large,location,,positive,even,NA,NA,NA
1,0,22,judge,12,6,6,intermixed,random,large,location,NA,positive,even,arrowdown,1,2827
1,0,23,cue,12,6,6,intermixed,random,large,location,,positive,even,NA,NA,NA
1,0,23,judge,12,6,6,intermixed,random,large,location,NA,positive,even,arrowdown,1,1149
1,0,24,cue,12,6,6,intermixed,random,large,location,,positive,even,NA,NA,NA
1,0,24,judge,12,6,6,intermixed,random,large,location,NA,positive,even,arrowdown,1,1534
1,0,25,cue,12,6,6,intermixed,random,large,location,,positive,even,NA,NA,NA
1,0,25,judge,12,6,6,intermixed,random,large,location,NA,positive,even,arrowup,1,1964
1,0,26,cue,12,6,6,intermixed,random,large,location,,positive,even,NA,NA,NA
1,0,26,judge,12,6,6,intermixed,random,large,location,NA,positive,even,arrowdown,1,1954
1,0,27,cue,12,6,6,intermixed,random,large,location,,positive,even,NA,NA,NA
1,0,27,judge,12,6,6,intermixed,random,large,location,NA,positive,even,arrowdown,1,882
1,0,28,cue,12,6,6,intermixed,random,large,location,,positive,even,NA,NA,NA
1,0,28,judge,12,6,6,intermixed,random,large,location,NA,positive,even,arrowup,1,1183
1,0,29,cue,12,6,6,intermixed,random,large,location,,positive,even,NA,NA,NA
1,0,29,judge,12,6,6,intermixed,random,large,location,NA,positive,even,arrowdown,1,873
1,0,30,cue,12,6,6,intermixed,random,large,location,,positive,even,NA,NA,NA
1,0,30,judge,12,6,6,intermixed,random,large,location,NA,positive,even,arrowdown,1,762
1,0,31,cue,12,6,6,intermixed,random,large,location,,positive,even,NA,NA,NA
1,0,31,judge,12,6,6,intermixed,random,large,location,NA,positive,even,arrowdown,1,1726
1,0,32,cue,12,6,6,intermixed,random,large,location,,positive,even,NA,NA,NA
1,0,32,judge,12,6,6,intermixed,random,large,location,NA,positive,even,arrowdown,1,586
1,0,33,cue,12,6,6,intermixed,random,large,location,,positive,even,NA,NA,NA
1,0,33,judge,12,6,6,intermixed,random,large,location,NA,positive,even,arrowdown,1,519
1,0,34,cue,12,6,6,intermixed,random,large,location,,positive,even,NA,NA,NA
1,0,34,judge,12,6,6,intermixed,random,large,location,NA,positive,even,arrowdown,1,532
1,0,35,cue,12,6,6,intermixed,random,large,location,,positive,even,NA,NA,NA
1,0,35,judge,12,6,6,intermixed,random,large,location,NA,positive,even,arrowdown,1,1117
1,0,36,cue,12,6,6,intermixed,random,large,location,,positive,even,NA,NA,NA
1,0,36,judge,12,6,6,intermixed,random,large,location,NA,positive,even,arrowdown,1,1617
1,0,37,cue,12,6,6,intermixed,random,large,location,,positive,even,NA,NA,NA
1,0,37,judge,12,6,6,intermixed,random,large,location,NA,positive,even,arrowup,1,949
1,0,38,cue,12,6,6,intermixed,random,large,location,,positive,even,NA,NA,NA
1,0,38,judge,12,6,6,intermixed,random,large,location,NA,positive,even,arrowup,1,1132
1,0,39,cue,12,6,6,intermixed,random,large,location,,positive,even,NA,NA,NA
1,0,39,judge,12,6,6,intermixed,random,large,location,NA,positive,even,arrowdown,1,739
1,0,40,cue,12,6,6,intermixed,random,large,location,,positive,even,NA,NA,NA
1,0,40,judge,12,6,6,intermixed,random,large,location,NA,positive,even,arrowup,1,744
1,0,41,cue,12,6,6,intermixed,random,large,location,,positive,even,NA,NA,NA
1,0,41,judge,12,6,6,intermixed,random,large,location,NA,positive,even,arrowup,1,574
1,0,42,cue,12,6,6,intermixed,random,large,location,,positive,even,NA,NA,NA
1,0,42,judge,12,6,6,intermixed,random,large,location,NA,positive,even,arrowup,1,2111
1,0,43,cue,12,6,6,intermixed,random,large,location,,positive,even,NA,NA,NA
1,0,43,judge,12,6,6,intermixed,random,large,location,NA,positive,even,arrowup,1,1336
1,0,44,cue,12,6,6,intermixed,random,large,location,,positive,even,NA,NA,NA
1,0,44,judge,12,6,6,intermixed,random,large,location,NA,positive,even,arrowdown,1,1378
1,0,45,cue,12,6,6,intermixed,random,large,location,,positive,even,NA,NA,NA
1,0,45,judge,12,6,6,intermixed,random,large,location,NA,positive,even,arrowdown,1,1202
1,0,46,cue,12,6,6,intermixed,random,large,location,,positive,even,NA,NA,NA
1,0,46,judge,12,6,6,intermixed,random,large,location,NA,positive,even,arrowdown,1,1516
1,0,47,cue,12,6,6,intermixed,random,large,location,,positive,even,NA,NA,NA
1,0,47,judge,12,6,6,intermixed,random,large,location,NA,positive,even,arrowup,1,1261
1,0,48,cue,12,6,6,intermixed,random,large,location,,positive,even,NA,NA,NA
1,0,48,judge,12,6,6,intermixed,random,large,location,NA,positive,even,arrowdown,1,1443
1,0,49,cue,12,6,6,intermixed,random,large,location,,positive,even,NA,NA,NA
1,0,49,judge,12,6,6,intermixed,random,large,location,NA,positive,even,arrowup,1,1450
1,0,50,cue,12,6,6,intermixed,random,large,location,,positive,even,NA,NA,NA
1,0,50,judge,12,6,6,intermixed,random,large,location,NA,positive,even,arrowdown,1,1803
1,0,51,cue,12,6,6,intermixed,random,large,location,,positive,even,NA,NA,NA
1,0,51,judge,12,6,6,intermixed,random,large,location,NA,positive,even,arrowup,1,1636
1,0,52,cue,12,6,6,intermixed,random,large,location,,positive,even,NA,NA,NA
1,0,52,judge,12,6,6,intermixed,random,large,location,NA,positive,even,arrowdown,1,647
1,0,53,cue,12,6,6,intermixed,random,large,location,,positive,even,NA,NA,NA
1,0,53,judge,12,6,6,intermixed,random,large,location,NA,positive,even,arrowup,1,810
1,0,54,cue,12,6,6,intermixed,random,large,location,,positive,even,NA,NA,NA
1,0,54,judge,12,6,6,intermixed,random,large,location,NA,positive,even,arrowup,1,793
1,0,55,cue,12,6,6,intermixed,random,large,location,,positive,even,NA,NA,NA
1,0,55,judge,12,6,6,intermixed,random,large,location,NA,positive,even,arrowdown,1,740
1,0,56,cue,12,6,6,intermixed,random,large,location,,positive,even,NA,NA,NA
1,0,56,judge,12,6,6,intermixed,random,large,location,NA,positive,even,arrowdown,1,2250
1,0,57,cue,12,6,6,intermixed,random,large,location,,positive,even,NA,NA,NA
1,0,57,judge,12,6,6,intermixed,random,large,location,NA,positive,even,arrowup,1,1619
1,0,58,cue,12,6,6,intermixed,random,large,location,,positive,even,NA,NA,NA
1,0,58,judge,12,6,6,intermixed,random,large,location,NA,positive,even,arrowdown,0,1521
1,0,59,cue,12,6,6,intermixed,random,large,location,,positive,even,NA,NA,NA
1,0,59,judge,12,6,6,intermixed,random,large,location,NA,positive,even,arrowup,1,1679
1,1,0,cue,12,6,6,intermixed,random,large,location,,neutral,even,NA,NA,NA
1,1,0,judge,12,6,6,intermixed,random,large,location,NA,neutral,even,arrowup,1,2591
1,1,1,cue,12,6,6,intermixed,random,large,location,,neutral,even,NA,NA,NA
1,1,1,judge,12,6,6,intermixed,random,large,location,NA,neutral,even,arrowup,1,1193
1,1,2,cue,12,6,6,intermixed,random,large,location,,neutral,even,NA,NA,NA
1,1,2,judge,12,6,6,intermixed,random,large,location,NA,neutral,even,arrowdown,1,1598
1,1,3,cue,12,6,6,intermixed,random,large,location,,neutral,even,NA,NA,NA
1,1,3,judge,12,6,6,intermixed,random,large,location,NA,neutral,even,arrowup,1,2349
1,1,4,cue,12,6,6,intermixed,random,large,location,,neutral,even,NA,NA,NA
1,1,4,judge,12,6,6,intermixed,random,large,location,NA,neutral,even,arrowup,1,911
1,1,5,cue,12,6,6,intermixed,random,large,location,,neutral,even,NA,NA,NA
1,1,5,judge,12,6,6,intermixed,random,large,location,NA,neutral,even,arrowup,1,1108
1,1,6,cue,12,6,6,intermixed,random,large,location,,neutral,even,NA,NA,NA
1,1,6,judge,12,6,6,intermixed,random,large,location,NA,neutral,even,arrowdown,1,1335
1,1,7,cue,12,6,6,intermixed,random,large,location,,neutral,even,NA,NA,NA
1,1,7,judge,12,6,6,intermixed,random,large,location,NA,neutral,even,arrowdown,1,2409
1,1,8,cue,12,6,6,intermixed,random,large,location,,neutral,even,NA,NA,NA
1,1,8,judge,12,6,6,intermixed,random,large,location,NA,neutral,even,arrowup,1,805
1,1,9,cue,12,6,6,intermixed,random,large,location,,neutral,even,NA,NA,NA
1,1,9,judge,12,6,6,intermixed,random,large,location,NA,neutral,even,arrowdown,1,706
1,1,10,cue,12,6,6,intermixed,random,large,location,,neutral,even,NA,NA,NA
1,1,10,judge,12,6,6,intermixed,random,large,location,NA,neutral,even,arrowup,1,1477
1,1,11,cue,12,6,6,intermixed,random,large,location,,neutral,even,NA,NA,NA
1,1,11,judge,12,6,6,intermixed,random,large,location,NA,neutral,even,arrowdown,1,927
1,1,12,cue,12,6,6,intermixed,random,large,location,,neutral,even,NA,NA,NA
1,1,12,judge,12,6,6,intermixed,random,large,location,NA,neutral,even,arrowup,0,707
1,1,13,cue,12,6,6,intermixed,random,large,location,,neutral,even,NA,NA,NA
1,1,13,judge,12,6,6,intermixed,random,large,location,NA,neutral,even,arrowup,1,878
1,1,14,cue,12,6,6,intermixed,random,large,location,,neutral,even,NA,NA,NA
1,1,14,judge,12,6,6,intermixed,random,large,location,NA,neutral,even,arrowup,1,678
1,1,15,cue,12,6,6,intermixed,random,large,location,,neutral,even,NA,NA,NA
1,1,15,judge,12,6,6,intermixed,random,large,location,NA,neutral,even,arrowup,1,2822
1,1,16,cue,12,6,6,intermixed,random,large,location,,neutral,even,NA,NA,NA
1,1,16,judge,12,6,6,intermixed,random,large,location,NA,neutral,even,arrowdown,1,1264
1,1,17,cue,12,6,6,intermixed,random,large,location,,neutral,even,NA,NA,NA
1,1,17,judge,12,6,6,intermixed,random,large,location,NA,neutral,even,arrowup,1,2698
1,1,18,cue,12,6,6,intermixed,random,large,location,,neutral,even,NA,NA,NA
1,1,18,judge,12,6,6,intermixed,random,large,location,NA,neutral,even,arrowup,1,1956
1,1,19,cue,12,6,6,intermixed,random,large,location,,neutral,even,NA,NA,NA
1,1,19,judge,12,6,6,intermixed,random,large,location,NA,neutral,even,arrowup,1,1986
1,1,20,cue,12,6,6,intermixed,random,large,location,,neutral,even,NA,NA,NA
1,1,20,judge,12,6,6,intermixed,random,large,location,NA,neutral,even,arrowdown,1,1402
1,1,21,cue,12,6,6,intermixed,random,large,location,,neutral,even,NA,NA,NA
1,1,21,judge,12,6,6,intermixed,random,large,location,NA,neutral,even,arrowup,1,1649
1,1,22,cue,12,6,6,intermixed,random,large,location,,neutral,even,NA,NA,NA
1,1,22,judge,12,6,6,intermixed,random,large,location,NA,neutral,even,arrowup,1,2619
1,1,23,cue,12,6,6,intermixed,random,large,location,,neutral,even,NA,NA,NA
1,1,23,judge,12,6,6,intermixed,random,large,location,NA,neutral,even,arrowup,1,1527
1,1,24,cue,12,6,6,intermixed,random,large,location,,neutral,even,NA,NA,NA
1,1,24,judge,12,6,6,intermixed,random,large,location,NA,neutral,even,arrowup,1,2403
1,1,25,cue,12,6,6,intermixed,random,large,location,,neutral,even,NA,NA,NA
1,1,25,judge,12,6,6,intermixed,random,large,location,NA,neutral,even,arrowdown,1,2114
1,1,26,cue,12,6,6,intermixed,random,large,location,,neutral,even,NA,NA,NA
1,1,26,judge,12,6,6,intermixed,random,large,location,NA,neutral,even,arrowup,1,980
1,1,27,cue,12,6,6,intermixed,random,large,location,,neutral,even,NA,NA,NA
1,1,27,judge,12,6,6,intermixed,random,large,location,NA,neutral,even,arrowup,1,2497
1,1,28,cue,12,6,6,intermixed,random,large,location,,neutral,even,NA,NA,NA
1,1,28,judge,12,6,6,intermixed,random,large,location,NA,neutral,even,arrowdown,1,1196
1,1,29,cue,12,6,6,intermixed,random,large,location,,neutral,even,NA,NA,NA
1,1,29,judge,12,6,6,intermixed,random,large,location,NA,neutral,even,arrowup,1,1343
1,1,30,cue,12,6,6,intermixed,random,large,location,,neutral,even,NA,NA,NA
1,1,30,judge,12,6,6,intermixed,random,large,location,NA,neutral,even,arrowdown,1,1186
1,1,31,cue,12,6,6,intermixed,random,large,location,,neutral,even,NA,NA,NA
1,1,31,judge,12,6,6,intermixed,random,large,location,NA,neutral,even,arrowup,1,2209
1,1,32,cue,12,6,6,intermixed,random,large,location,,neutral,even,NA,NA,NA
1,1,32,judge,12,6,6,intermixed,random,large,location,NA,neutral,even,arrowdown,1,835
1,1,33,cue,12,6,6,intermixed,random,large,location,,neutral,even,NA,NA,NA
1,1,33,judge,12,6,6,intermixed,random,large,location,NA,neutral,even,arrowup,1,1279
1,1,34,cue,12,6,6,intermixed,random,large,location,,neutral,even,NA,NA,NA
1,1,34,judge,12,6,6,intermixed,random,large,location,NA,neutral,even,arrowdown,1,1861
1,1,35,cue,12,6,6,intermixed,random,large,location,,neutral,even,NA,NA,NA
1,1,35,judge,12,6,6,intermixed,random,large,location,NA,neutral,even,arrowup,1,1727
1,1,36,cue,12,6,6,intermixed,random,large,location,,neutral,even,NA,NA,NA
1,1,36,judge,12,6,6,intermixed,random,large,location,NA,neutral,even,arrowup,1,1378
1,1,37,cue,12,6,6,intermixed,random,large,location,,neutral,even,NA,NA,NA
1,1,37,judge,12,6,6,intermixed,random,large,location,NA,neutral,even,arrowdown,1,2367
1,1,38,cue,12,6,6,intermixed,random,large,location,,neutral,even,NA,NA,NA
1,1,38,judge,12,6,6,intermixed,random,large,location,NA,neutral,even,arrowup,1,2316
1,1,39,cue,12,6,6,intermixed,random,large,location,,neutral,even,NA,NA,NA
1,1,39,judge,12,6,6,intermixed,random,large,location,NA,neutral,even,arrowdown,1,3230
1,1,40,cue,12,6,6,intermixed,random,large,location,,neutral,even,NA,NA,NA
1,1,40,judge,12,6,6,intermixed,random,large,location,NA,neutral,even,arrowdown,1,7151
1,1,41,cue,12,6,6,intermixed,random,large,location,,neutral,even,NA,NA,NA
1,1,41,judge,12,6,6,intermixed,random,large,location,NA,neutral,even,arrowdown,1,1617
1,1,42,cue,12,6,6,intermixed,random,large,location,,neutral,even,NA,NA,NA
1,1,42,judge,12,6,6,intermixed,random,large,location,NA,neutral,even,arrowdown,1,2617
1,1,43,cue,12,6,6,intermixed,random,large,location,,neutral,even,NA,NA,NA
1,1,43,judge,12,6,6,intermixed,random,large,location,NA,neutral,even,arrowdown,1,2199
1,1,44,cue,12,6,6,intermixed,random,large,location,,neutral,even,NA,NA,NA
1,1,44,judge,12,6,6,intermixed,random,large,location,NA,neutral,even,arrowdown,1,1687
1,1,45,cue,12,6,6,intermixed,random,large,location,,neutral,even,NA,NA,NA
1,1,45,judge,12,6,6,intermixed,random,large,location,NA,neutral,even,arrowup,1,2991
1,1,46,cue,12,6,6,intermixed,random,large,location,,neutral,even,NA,NA,NA
1,1,46,judge,12,6,6,intermixed,random,large,location,NA,neutral,even,arrowup,1,2086
1,1,47,cue,12,6,6,intermixed,random,large,location,,neutral,even,NA,NA,NA
1,1,47,judge,12,6,6,intermixed,random,large,location,NA,neutral,even,arrowup,1,2739
1,1,48,cue,12,6,6,intermixed,random,large,location,,neutral,even,NA,NA,NA
1,1,48,judge,12,6,6,intermixed,random,large,location,NA,neutral,even,arrowdown,1,2997
1,1,49,cue,12,6,6,intermixed,random,large,location,,neutral,even,NA,NA,NA
1,1,49,judge,12,6,6,intermixed,random,large,location,NA,neutral,even,arrowdown,1,2458
1,1,50,cue,12,6,6,intermixed,random,large,location,,neutral,even,NA,NA,NA
1,1,50,judge,12,6,6,intermixed,random,large,location,NA,neutral,even,arrowup,1,1554
1,1,51,cue,12,6,6,intermixed,random,large,location,,neutral,even,NA,NA,NA
1,1,51,judge,12,6,6,intermixed,random,large,location,NA,neutral,even,arrowup,1,2544
1,1,52,cue,12,6,6,intermixed,random,large,location,,neutral,even,NA,NA,NA
1,1,52,judge,12,6,6,intermixed,random,large,location,NA,neutral,even,arrowdown,1,1854
1,1,53,cue,12,6,6,intermixed,random,large,location,,neutral,even,NA,NA,NA
1,1,53,judge,12,6,6,intermixed,random,large,location,NA,neutral,even,arrowdown,1,2613
1,1,54,cue,12,6,6,intermixed,random,large,location,,neutral,even,NA,NA,NA
1,1,54,judge,12,6,6,intermixed,random,large,location,NA,neutral,even,arrowup,1,2511
1,1,55,cue,12,6,6,intermixed,random,large,location,,neutral,even,NA,NA,NA
1,1,55,judge,12,6,6,intermixed,random,large,location,NA,neutral,even,arrowdown,1,3072
1,1,56,cue,12,6,6,intermixed,random,large,location,,neutral,even,NA,NA,NA
1,1,56,judge,12,6,6,intermixed,random,large,location,NA,neutral,even,arrowdown,1,2338
1,1,57,cue,12,6,6,intermixed,random,large,location,,neutral,even,NA,NA,NA
1,1,57,judge,12,6,6,intermixed,random,large,location,NA,neutral,even,arrowup,1,2123
1,1,58,cue,12,6,6,intermixed,random,large,location,,neutral,even,NA,NA,NA
1,1,58,judge,12,6,6,intermixed,random,large,location,NA,neutral,even,arrowup,1,1098
1,1,59,cue,12,6,6,intermixed,random,large,location,,neutral,even,NA,NA,NA
1,1,59,judge,12,6,6,intermixed,random,large,location,NA,neutral,even,arrowdown,1,1229
1,2,0,cue,12,6,6,intermixed,random,large,location,,negative,even,NA,NA,NA
1,2,0,judge,12,6,6,intermixed,random,large,location,NA,negative,even,arrowdown,1,914
1,2,1,cue,12,6,6,intermixed,random,large,location,,negative,even,NA,NA,NA
1,2,1,judge,12,6,6,intermixed,random,large,location,NA,negative,even,arrowdown,1,1028
1,2,2,cue,12,6,6,intermixed,random,large,location,,negative,even,NA,NA,NA
1,2,2,judge,12,6,6,intermixed,random,large,location,NA,negative,even,arrowup,1,1561
1,2,3,cue,12,6,6,intermixed,random,large,location,,negative,even,NA,NA,NA
1,2,3,judge,12,6,6,intermixed,random,large,location,NA,negative,even,arrowdown,1,702
1,2,4,cue,12,6,6,intermixed,random,large,location,,negative,even,NA,NA,NA
1,2,4,judge,12,6,6,intermixed,random,large,location,NA,negative,even,arrowup,1,1849
1,2,5,cue,12,6,6,intermixed,random,large,location,,negative,even,NA,NA,NA
1,2,5,judge,12,6,6,intermixed,random,large,location,NA,negative,even,arrowup,1,1428
1,2,6,cue,12,6,6,intermixed,random,large,location,,negative,even,NA,NA,NA
1,2,6,judge,12,6,6,intermixed,random,large,location,NA,negative,even,arrowup,1,1030
1,2,7,cue,12,6,6,intermixed,random,large,location,,negative,even,NA,NA,NA
1,2,7,judge,12,6,6,intermixed,random,large,location,NA,negative,even,arrowdown,1,1844
1,2,8,cue,12,6,6,intermixed,random,large,location,,negative,even,NA,NA,NA
1,2,8,judge,12,6,6,intermixed,random,large,location,NA,negative,even,arrowup,1,1152
1,2,9,cue,12,6,6,intermixed,random,large,location,,negative,even,NA,NA,NA
1,2,9,judge,12,6,6,intermixed,random,large,location,NA,negative,even,arrowup,1,1383
1,2,10,cue,12,6,6,intermixed,random,large,location,,negative,even,NA,NA,NA
1,2,10,judge,12,6,6,intermixed,random,large,location,NA,negative,even,arrowup,1,758
1,2,11,cue,12,6,6,intermixed,random,large,location,,negative,even,NA,NA,NA
1,2,11,judge,12,6,6,intermixed,random,large,location,NA,negative,even,arrowdown,1,1480
1,2,12,cue,12,6,6,intermixed,random,large,location,,negative,even,NA,NA,NA
1,2,12,judge,12,6,6,intermixed,random,large,location,NA,negative,even,arrowup,1,1713
1,2,13,cue,12,6,6,intermixed,random,large,location,,negative,even,NA,NA,NA
1,2,13,judge,12,6,6,intermixed,random,large,location,NA,negative,even,arrowdown,1,741
1,2,14,cue,12,6,6,intermixed,random,large,location,,negative,even,NA,NA,NA
1,2,14,judge,12,6,6,intermixed,random,large,location,NA,negative,even,arrowup,1,1996
1,2,15,cue,12,6,6,intermixed,random,large,location,,negative,even,NA,NA,NA
1,2,15,judge,12,6,6,intermixed,random,large,location,NA,negative,even,arrowdown,1,1372
1,2,16,cue,12,6,6,intermixed,random,large,location,,negative,even,NA,NA,NA
1,2,16,judge,12,6,6,intermixed,random,large,location,NA,negative,even,arrowdown,1,2051
1,2,17,cue,12,6,6,intermixed,random,large,location,,negative,even,NA,NA,NA
1,2,17,judge,12,6,6,intermixed,random,large,location,NA,negative,even,arrowdown,1,547
1,2,18,cue,12,6,6,intermixed,random,large,location,,negative,even,NA,NA,NA
1,2,18,judge,12,6,6,intermixed,random,large,location,NA,negative,even,arrowup,1,1511
1,2,19,cue,12,6,6,intermixed,random,large,location,,negative,even,NA,NA,NA
1,2,19,judge,12,6,6,intermixed,random,large,location,NA,negative,even,arrowdown,1,1425
1,2,20,cue,12,6,6,intermixed,random,large,location,,negative,even,NA,NA,NA
1,2,20,judge,12,6,6,intermixed,random,large,location,NA,negative,even,arrowdown,1,884
1,2,21,cue,12,6,6,intermixed,random,large,location,,negative,even,NA,NA,NA
1,2,21,judge,12,6,6,intermixed,random,large,location,NA,negative,even,arrowdown,1,681
1,2,22,cue,12,6,6,intermixed,random,large,location,,negative,even,NA,NA,NA
1,2,22,judge,12,6,6,intermixed,random,large,location,NA,negative,even,arrowdown,1,1704
1,2,23,cue,12,6,6,intermixed,random,large,location,,negative,even,NA,NA,NA
1,2,23,judge,12,6,6,intermixed,random,large,location,NA,negative,even,arrowdown,1,1183
1,2,24,cue,12,6,6,intermixed,random,large,location,,negative,even,NA,NA,NA
1,2,24,judge,12,6,6,intermixed,random,large,location,NA,negative,even,arrowup,1,1135
1,2,25,cue,12,6,6,intermixed,random,large,location,,negative,even,NA,NA,NA
1,2,25,judge,12,6,6,intermixed,random,large,location,NA,negative,even,arrowdown,1,2109
1,2,26,cue,12,6,6,intermixed,random,large,location,,negative,even,NA,NA,NA
1,2,26,judge,12,6,6,intermixed,random,large,location,NA,negative,even,arrowup,1,1151
1,2,27,cue,12,6,6,intermixed,random,large,location,,negative,even,NA,NA,NA
1,2,27,judge,12,6,6,intermixed,random,large,location,NA,negative,even,arrowdown,1,633
1,2,28,cue,12,6,6,intermixed,random,large,location,,negative,even,NA,NA,NA
1,2,28,judge,12,6,6,intermixed,random,large,location,NA,negative,even,arrowup,1,1082
1,2,29,cue,12,6,6,intermixed,random,large,location,,negative,even,NA,NA,NA
1,2,29,judge,12,6,6,intermixed,random,large,location,NA,negative,even,arrowup,1,1624
1,2,30,cue,12,6,6,intermixed,random,large,location,,negative,even,NA,NA,NA
1,2,30,judge,12,6,6,intermixed,random,large,location,NA,negative,even,arrowup,1,1243
1,2,31,cue,12,6,6,intermixed,random,large,location,,negative,even,NA,NA,NA
1,2,31,judge,12,6,6,intermixed,random,large,location,NA,negative,even,arrowup,1,1866
1,2,32,cue,12,6,6,intermixed,random,large,location,,negative,even,NA,NA,NA
1,2,32,judge,12,6,6,intermixed,random,large,location,NA,negative,even,arrowup,1,3641
1,2,33,cue,12,6,6,intermixed,random,large,location,,negative,even,NA,NA,NA
1,2,33,judge,12,6,6,intermixed,random,large,location,NA,negative,even,arrowdown,1,1432
1,2,34,cue,12,6,6,intermixed,random,large,location,,negative,even,NA,NA,NA
1,2,34,judge,12,6,6,intermixed,random,large,location,NA,negative,even,arrowup,1,1226
1,2,35,cue,12,6,6,intermixed,random,large,location,,negative,even,NA,NA,NA
1,2,35,judge,12,6,6,intermixed,random,large,location,NA,negative,even,arrowdown,1,1529
1,2,36,cue,12,6,6,intermixed,random,large,location,,negative,even,NA,NA,NA
1,2,36,judge,12,6,6,intermixed,random,large,location,NA,negative,even,arrowup,1,739
1,2,37,cue,12,6,6,intermixed,random,large,location,,negative,even,NA,NA,NA
1,2,37,judge,12,6,6,intermixed,random,large,location,NA,negative,even,arrowdown,1,1070
1,2,38,cue,12,6,6,intermixed,random,large,location,,negative,even,NA,NA,NA
1,2,38,judge,12,6,6,intermixed,random,large,location,NA,negative,even,arrowup,1,1030
1,2,39,cue,12,6,6,intermixed,random,large,location,,negative,even,NA,NA,NA
1,2,39,judge,12,6,6,intermixed,random,large,location,NA,negative,even,arrowdown,1,1434
1,2,40,cue,12,6,6,intermixed,random,large,location,,negative,even,NA,NA,NA
1,2,40,judge,12,6,6,intermixed,random,large,location,NA,negative,even,arrowdown,1,1035
1,2,41,cue,12,6,6,intermixed,random,large,location,,negative,even,NA,NA,NA
1,2,41,judge,12,6,6,intermixed,random,large,location,NA,negative,even,arrowdown,1,1388
1,2,42,cue,12,6,6,intermixed,random,large,location,,negative,even,NA,NA,NA
1,2,42,judge,12,6,6,intermixed,random,large,location,NA,negative,even,arrowup,1,887
1,2,43,cue,12,6,6,intermixed,random,large,location,,negative,even,NA,NA,NA
1,2,43,judge,12,6,6,intermixed,random,large,location,NA,negative,even,arrowup,1,1241
1,2,44,cue,12,6,6,intermixed,random,large,location,,negative,even,NA,NA,NA
1,2,44,judge,12,6,6,intermixed,random,large,location,NA,negative,even,arrowdown,1,1584
1,2,45,cue,12,6,6,intermixed,random,large,location,,negative,even,NA,NA,NA
1,2,45,judge,12,6,6,intermixed,random,large,location,NA,negative,even,arrowdown,1,1328
1,2,46,cue,12,6,6,intermixed,random,large,location,,negative,even,NA,NA,NA
1,2,46,judge,12,6,6,intermixed,random,large,location,NA,negative,even,arrowup,1,1750
1,2,47,cue,12,6,6,intermixed,random,large,location,,negative,even,NA,NA,NA
1,2,47,judge,12,6,6,intermixed,random,large,location,NA,negative,even,arrowdown,1,947
1,2,48,cue,12,6,6,intermixed,random,large,location,,negative,even,NA,NA,NA
1,2,48,judge,12,6,6,intermixed,random,large,location,NA,negative,even,arrowup,1,1433
1,2,49,cue,12,6,6,intermixed,random,large,location,,negative,even,NA,NA,NA
1,2,49,judge,12,6,6,intermixed,random,large,location,NA,negative,even,arrowup,1,2014
1,2,50,cue,12,6,6,intermixed,random,large,location,,negative,even,NA,NA,NA
1,2,50,judge,12,6,6,intermixed,random,large,location,NA,negative,even,arrowup,1,1587
1,2,51,cue,12,6,6,intermixed,random,large,location,,negative,even,NA,NA,NA
1,2,51,judge,12,6,6,intermixed,random,large,location,NA,negative,even,arrowup,1,1416
1,2,52,cue,12,6,6,intermixed,random,large,location,,negative,even,NA,NA,NA
1,2,52,judge,12,6,6,intermixed,random,large,location,NA,negative,even,arrowup,1,2455
1,2,53,cue,12,6,6,intermixed,random,large,location,,negative,even,NA,NA,NA
1,2,53,judge,12,6,6,intermixed,random,large,location,NA,negative,even,arrowup,1,1400
1,2,54,cue,12,6,6,intermixed,random,large,location,,negative,even,NA,NA,NA
1,2,54,judge,12,6,6,intermixed,random,large,location,NA,negative,even,arrowup,1,775
1,2,55,cue,12,6,6,intermixed,random,large,location,,negative,even,NA,NA,NA
1,2,55,judge,12,6,6,intermixed,random,large,location,NA,negative,even,arrowdown,1,713
1,2,56,cue,12,6,6,intermixed,random,large,location,,negative,even,NA,NA,NA
1,2,56,judge,12,6,6,intermixed,random,large,location,NA,negative,even,arrowdown,1,968
1,2,57,cue,12,6,6,intermixed,random,large,location,,negative,even,NA,NA,NA
1,2,57,judge,12,6,6,intermixed,random,large,location,NA,negative,even,arrowup,1,927
1,2,58,cue,12,6,6,intermixed,random,large,location,,negative,even,NA,NA,NA
1,2,58,judge,12,6,6,intermixed,random,large,location,NA,negative,even,arrowup,1,950
1,2,59,cue,12,6,6,intermixed,random,large,location,,negative,even,NA,NA,NA
1,2,59,judge,12,6,6,intermixed,random,large,location,NA,negative,even,arrowup,1,1967
1,0,0,cue,12,6,6,intermixed,random,large,color,#660fbd,positive,even,NA,NA,NA
1,0,0,judge,12,6,6,intermixed,random,large,color,NA,positive,even,arrowup,1,1748
1,0,1,cue,12,6,6,intermixed,random,large,color,#52970c,positive,even,NA,NA,NA
1,0,1,judge,12,6,6,intermixed,random,large,color,NA,positive,even,arrowup,1,1316
1,0,2,cue,12,6,6,intermixed,random,large,color,#e21212,positive,even,NA,NA,NA
1,0,2,judge,12,6,6,intermixed,random,large,color,NA,positive,even,arrowup,1,699
1,0,3,cue,12,6,6,intermixed,random,large,color,#e21212,positive,even,NA,NA,NA
1,0,3,judge,12,6,6,intermixed,random,large,color,NA,positive,even,arrowup,1,1456
1,0,4,cue,12,6,6,intermixed,random,large,color,#ecb718,positive,even,NA,NA,NA
1,0,4,judge,12,6,6,intermixed,random,large,color,NA,positive,even,arrowdown,1,1510
1,0,5,cue,12,6,6,intermixed,random,large,color,#2b5bee,positive,even,NA,NA,NA
1,0,5,judge,12,6,6,intermixed,random,large,color,NA,positive,even,arrowdown,1,1714
1,0,6,cue,12,6,6,intermixed,random,large,color,#0eaaaa,positive,even,NA,NA,NA
1,0,6,judge,12,6,6,intermixed,random,large,color,NA,positive,even,arrowdown,1,1052
1,0,7,cue,12,6,6,intermixed,random,large,color,#e21212,positive,even,NA,NA,NA
1,0,7,judge,12,6,6,intermixed,random,large,color,NA,positive,even,arrowup,1,1306
1,0,8,cue,12,6,6,intermixed,random,large,color,#e21212,positive,even,NA,NA,NA
1,0,8,judge,12,6,6,intermixed,random,large,color,NA,positive,even,arrowup,1,1073
1,0,9,cue,12,6,6,intermixed,random,large,color,#e713b2,positive,even,NA,NA,NA
1,0,9,judge,12,6,6,intermixed,random,large,color,NA,positive,even,arrowdown,1,994
1,0,10,cue,12,6,6,intermixed,random,large,color,#0eaaaa,positive,even,NA,NA,NA
1,0,10,judge,12,6,6,intermixed,random,large,color,NA,positive,even,arrowdown,1,1360
1,0,11,cue,12,6,6,intermixed,random,large,color,#660fbd,positive,even,NA,NA,NA
1,0,11,judge,12,6,6,intermixed,random,large,color,NA,positive,even,arrowup,1,1747
1,0,12,cue,12,6,6,intermixed,random,large,color,#ecb718,positive,even,NA,NA,NA
1,0,12,judge,12,6,6,intermixed,random,large,color,NA,positive,even,arrowdown,1,1527
1,0,13,cue,12,6,6,intermixed,random,large,color,#e21212,positive,even,NA,NA,NA
1,0,13,judge,12,6,6,intermixed,random,large,color,NA,positive,even,arrowup,1,953
1,0,14,cue,12,6,6,intermixed,random,large,color,#660fbd,positive,even,NA,NA,NA
1,0,14,judge,12,6,6,intermixed,random,large,color,NA,positive,even,arrowdown,1,760
1,0,15,cue,12,6,6,intermixed,random,large,color,#2b5bee,positive,even,NA,NA,NA
1,0,15,judge,12,6,6,intermixed,random,large,color,NA,positive,even,arrowdown,1,1571
1,0,16,cue,12,6,6,intermixed,random,large,color,#0eaaaa,positive,even,NA,NA,NA
1,0,16,judge,12,6,6,intermixed,random,large,color,NA,positive,even,arrowdown,1,995
1,0,17,cue,12,6,6,intermixed,random,large,color,#e713b2,positive,even,NA,NA,NA
1,0,17,judge,12,6,6,intermixed,random,large,color,NA,positive,even,arrowdown,1,729
1,0,18,cue,12,6,6,intermixed,random,large,color,#660fbd,positive,even,NA,NA,NA
1,0,18,judge,12,6,6,intermixed,random,large,color,NA,positive,even,arrowup,1,937
1,0,19,cue,12,6,6,intermixed,random,large,color,#660fbd,positive,even,NA,NA,NA
1,0,19,judge,12,6,6,intermixed,random,large,color,NA,positive,even,arrowdown,1,1192
1,0,20,cue,12,6,6,intermixed,random,large,color,#2b5bee,positive,even,NA,NA,NA
1,0,20,judge,12,6,6,intermixed,random,large,color,NA,positive,even,arrowdown,1,1843
1,0,21,cue,12,6,6,intermixed,random,large,color,#660fbd,positive,even,NA,NA,NA
1,0,21,judge,12,6,6,intermixed,random,large,color,NA,positive,even,arrowup,1,1522
1,0,22,cue,12,6,6,intermixed,random,large,color,#2b5bee,positive,even,NA,NA,NA
1,0,22,judge,12,6,6,intermixed,random,large,color,NA,positive,even,arrowdown,1,1850
1,0,23,cue,12,6,6,intermixed,random,large,color,#52970c,positive,even,NA,NA,NA
1,0,23,judge,12,6,6,intermixed,random,large,color,NA,positive,even,arrowup,1,1075
1,0,24,cue,12,6,6,intermixed,random,large,color,#ecb718,positive,even,NA,NA,NA
1,0,24,judge,12,6,6,intermixed,random,large,color,NA,positive,even,arrowup,1,2319
1,0,25,cue,12,6,6,intermixed,random,large,color,#ecb718,positive,even,NA,NA,NA
1,0,25,judge,12,6,6,intermixed,random,large,color,NA,positive,even,arrowdown,1,1464
1,0,26,cue,12,6,6,intermixed,random,large,color,#0eaaaa,positive,even,NA,NA,NA
1,0,26,judge,12,6,6,intermixed,random,large,color,NA,positive,even,arrowdown,1,1450
1,0,27,cue,12,6,6,intermixed,random,large,color,#660fbd,positive,even,NA,NA,NA
1,0,27,judge,12,6,6,intermixed,random,large,color,NA,positive,even,arrowdown,1,1463
1,0,28,cue,12,6,6,intermixed,random,large,color,#e713b2,positive,even,NA,NA,NA
1,0,28,judge,12,6,6,intermixed,random,large,color,NA,positive,even,arrowdown,1,1374
1,0,29,cue,12,6,6,intermixed,random,large,color,#52970c,positive,even,NA,NA,NA
1,0,29,judge,12,6,6,intermixed,random,large,color,NA,positive,even,arrowdown,1,844
1,0,30,cue,12,6,6,intermixed,random,large,color,#2b5bee,positive,even,NA,NA,NA
1,0,30,judge,12,6,6,intermixed,random,large,color,NA,positive,even,arrowup,1,1115
1,0,31,cue,12,6,6,intermixed,random,large,color,#0eaaaa,positive,even,NA,NA,NA
1,0,31,judge,12,6,6,intermixed,random,large,color,NA,positive,even,arrowdown,1,2199
1,0,32,cue,12,6,6,intermixed,random,large,color,#e713b2,positive,even,NA,NA,NA
1,0,32,judge,12,6,6,intermixed,random,large,color,NA,positive,even,arrowup,1,1775
1,0,33,cue,12,6,6,intermixed,random,large,color,#ecb718,positive,even,NA,NA,NA
1,0,33,judge,12,6,6,intermixed,random,large,color,NA,positive,even,arrowdown,1,1355
1,0,34,cue,12,6,6,intermixed,random,large,color,#e713b2,positive,even,NA,NA,NA
1,0,34,judge,12,6,6,intermixed,random,large,color,NA,positive,even,arrowup,1,623
1,0,35,cue,12,6,6,intermixed,random,large,color,#2b5bee,positive,even,NA,NA,NA
1,0,35,judge,12,6,6,intermixed,random,large,color,NA,positive,even,arrowdown,1,1248
1,0,36,cue,12,6,6,intermixed,random,large,color,#e21212,positive,even,NA,NA,NA
1,0,36,judge,12,6,6,intermixed,random,large,color,NA,positive,even,arrowdown,1,1536
1,0,37,cue,12,6,6,intermixed,random,large,color,#0eaaaa,positive,even,NA,NA,NA
1,0,37,judge,12,6,6,intermixed,random,large,color,NA,positive,even,arrowdown,1,729
1,0,38,cue,12,6,6,intermixed,random,large,color,#2b5bee,positive,even,NA,NA,NA
1,0,38,judge,12,6,6,intermixed,random,large,color,NA,positive,even,arrowdown,1,780
1,0,39,cue,12,6,6,intermixed,random,large,color,#e713b2,positive,even,NA,NA,NA
1,0,39,judge,12,6,6,intermixed,random,large,color,NA,positive,even,arrowup,1,905
1,0,40,cue,12,6,6,intermixed,random,large,color,#0eaaaa,positive,even,NA,NA,NA
1,0,40,judge,12,6,6,intermixed,random,large,color,NA,positive,even,arrowup,1,1006
1,0,41,cue,12,6,6,intermixed,random,large,color,#e713b2,positive,even,NA,NA,NA
1,0,41,judge,12,6,6,intermixed,random,large,color,NA,positive,even,arrowup,1,1902
1,0,42,cue,12,6,6,intermixed,random,large,color,#e21212,positive,even,NA,NA,NA
1,0,42,judge,12,6,6,intermixed,random,large,color,NA,positive,even,arrowup,1,1565
1,0,43,cue,12,6,6,intermixed,random,large,color,#e713b2,positive,even,NA,NA,NA
1,0,43,judge,12,6,6,intermixed,random,large,color,NA,positive,even,arrowdown,1,922
1,0,44,cue,12,6,6,intermixed,random,large,color,#0eaaaa,positive,even,NA,NA,NA
1,0,44,judge,12,6,6,intermixed,random,large,color,NA,positive,even,arrowdown,1,1015
1,0,45,cue,12,6,6,intermixed,random,large,color,#ecb718,positive,even,NA,NA,NA
1,0,45,judge,12,6,6,intermixed,random,large,color,NA,positive,even,arrowup,1,1010
1,0,46,cue,12,6,6,intermixed,random,large,color,#e713b2,positive,even,NA,NA,NA
1,0,46,judge,12,6,6,intermixed,random,large,color,NA,positive,even,arrowdown,1,1368
1,0,47,cue,12,6,6,intermixed,random,large,color,#660fbd,positive,even,NA,NA,NA
1,0,47,judge,12,6,6,intermixed,random,large,color,NA,positive,even,arrowup,1,2150
1,0,48,cue,12,6,6,intermixed,random,large,color,#e21212,positive,even,NA,NA,NA
1,0,48,judge,12,6,6,intermixed,random,large,color,NA,positive,even,arrowdown,1,1199
1,0,49,cue,12,6,6,intermixed,random,large,color,#ecb718,positive,even,NA,NA,NA
1,0,49,judge,12,6,6,intermixed,random,large,color,NA,positive,even,arrowup,1,2111
1,0,50,cue,12,6,6,intermixed,random,large,color,#ecb718,positive,even,NA,NA,NA
1,0,50,judge,12,6,6,intermixed,random,large,color,NA,positive,even,arrowup,1,1344
1,0,51,cue,12,6,6,intermixed,random,large,color,#ecb718,positive,even,NA,NA,NA
1,0,51,judge,12,6,6,intermixed,random,large,color,NA,positive,even,arrowup,1,1675
1,0,52,cue,12,6,6,intermixed,random,large,color,#0eaaaa,positive,even,NA,NA,NA
1,0,52,judge,12,6,6,intermixed,random,large,color,NA,positive,even,arrowdown,1,802
1,0,53,cue,12,6,6,intermixed,random,large,color,#e713b2,positive,even,NA,NA,NA
1,0,53,judge,12,6,6,intermixed,random,large,color,NA,positive,even,arrowdown,1,738
1,0,54,cue,12,6,6,intermixed,random,large,color,#660fbd,positive,even,NA,NA,NA
1,0,54,judge,12,6,6,intermixed,random,large,color,NA,positive,even,arrowup,1,936
1,0,55,cue,12,6,6,intermixed,random,large,color,#2b5bee,positive,even,NA,NA,NA
1,0,55,judge,12,6,6,intermixed,random,large,color,NA,positive,even,arrowup,1,1260
1,0,56,cue,12,6,6,intermixed,random,large,color,#e21212,positive,even,NA,NA,NA
1,0,56,judge,12,6,6,intermixed,random,large,color,NA,positive,even,arrowdown,1,1063
1,0,57,cue,12,6,6,intermixed,random,large,color,#ecb718,positive,even,NA,NA,NA
1,0,57,judge,12,6,6,intermixed,random,large,color,NA,positive,even,arrowup,1,1712
1,0,58,cue,12,6,6,intermixed,random,large,color,#0eaaaa,positive,even,NA,NA,NA
1,0,58,judge,12,6,6,intermixed,random,large,color,NA,positive,even,arrowup,1,1137
1,0,59,cue,12,6,6,intermixed,random,large,color,#2b5bee,positive,even,NA,NA,NA
1,0,59,judge,12,6,6,intermixed,random,large,color,NA,positive,even,arrowup,1,1926
1,1,0,cue,12,6,6,intermixed,random,large,color,#2b5bee,negative,even,NA,NA,NA
1,1,0,judge,12,6,6,intermixed,random,large,color,NA,negative,even,arrowup,1,1016
1,1,1,cue,12,6,6,intermixed,random,large,color,#e713b2,negative,even,NA,NA,NA
1,1,1,judge,12,6,6,intermixed,random,large,color,NA,negative,even,arrowup,1,2071
1,1,2,cue,12,6,6,intermixed,random,large,color,#660fbd,negative,even,NA,NA,NA
1,1,2,judge,12,6,6,intermixed,random,large,color,NA,negative,even,arrowdown,1,1580
1,1,3,cue,12,6,6,intermixed,random,large,color,#2b5bee,negative,even,NA,NA,NA
1,1,3,judge,12,6,6,intermixed,random,large,color,NA,negative,even,arrowup,1,1270
1,1,4,cue,12,6,6,intermixed,random,large,color,#52970c,negative,even,NA,NA,NA
1,1,4,judge,12,6,6,intermixed,random,large,color,NA,negative,even,arrowdown,1,1763
1,1,5,cue,12,6,6,intermixed,random,large,color,#ecb718,negative,even,NA,NA,NA
1,1,5,judge,12,6,6,intermixed,random,large,color,NA,negative,even,arrowup,1,695
1,1,6,cue,12,6,6,intermixed,random,large,color,#660fbd,negative,even,NA,NA,NA
1,1,6,judge,12,6,6,intermixed,random,large,color,NA,negative,even,arrowdown,1,1177
1,1,7,cue,12,6,6,intermixed,random,large,color,#e21212,negative,even,NA,NA,NA
1,1,7,judge,12,6,6,intermixed,random,large,color,NA,negative,even,arrowup,1,937
1,1,8,cue,12,6,6,intermixed,random,large,color,#e713b2,negative,even,NA,NA,NA
1,1,8,judge,12,6,6,intermixed,random,large,color,NA,negative,even,arrowup,1,785
1,1,9,cue,12,6,6,intermixed,random,large,color,#660fbd,negative,even,NA,NA,NA
1,1,9,judge,12,6,6,intermixed,random,large,color,NA,negative,even,arrowup,1,1080
1,1,10,cue,12,6,6,intermixed,random,large,color,#e21212,negative,even,NA,NA,NA
1,1,10,judge,12,6,6,intermixed,random,large,color,NA,negative,even,arrowdown,1,914
1,1,11,cue,12,6,6,intermixed,random,large,color,#660fbd,negative,even,NA,NA,NA
1,1,11,judge,12,6,6,intermixed,random,large,color,NA,negative,even,arrowdown,1,949
1,1,12,cue,12,6,6,intermixed,random,large,color,#e21212,negative,even,NA,NA,NA
1,1,12,judge,12,6,6,intermixed,random,large,color,NA,negative,even,arrowup,1,2357
1,1,13,cue,12,6,6,intermixed,random,large,color,#2b5bee,negative,even,NA,NA,NA
1,1,13,judge,12,6,6,intermixed,random,large,color,NA,negative,even,arrowup,1,826
1,1,14,cue,12,6,6,intermixed,random,large,color,#0eaaaa,negative,even,NA,NA,NA
1,1,14,judge,12,6,6,intermixed,random,large,color,NA,negative,even,arrowdown,1,1432
1,1,15,cue,12,6,6,intermixed,random,large,color,#52970c,negative,even,NA,NA,NA
1,1,15,judge,12,6,6,intermixed,random,large,color,NA,negative,even,arrowdown,1,1482
1,1,16,cue,12,6,6,intermixed,random,large,color,#e713b2,negative,even,NA,NA,NA
1,1,16,judge,12,6,6,intermixed,random,large,color,NA,negative,even,arrowup,1,1130
1,1,17,cue,12,6,6,intermixed,random,large,color,#660fbd,negative,even,NA,NA,NA
1,1,17,judge,12,6,6,intermixed,random,large,color,NA,negative,even,arrowup,1,1214
1,1,18,cue,12,6,6,intermixed,random,large,color,#2b5bee,negative,even,NA,NA,NA
1,1,18,judge,12,6,6,intermixed,random,large,color,NA,negative,even,arrowup,1,871
1,1,19,cue,12,6,6,intermixed,random,large,color,#e713b2,negative,even,NA,NA,NA
1,1,19,judge,12,6,6,intermixed,random,large,color,NA,negative,even,arrowdown,1,1845
1,1,20,cue,12,6,6,intermixed,random,large,color,#ecb718,negative,even,NA,NA,NA
1,1,20,judge,12,6,6,intermixed,random,large,color,NA,negative,even,arrowdown,1,995
1,1,21,cue,12,6,6,intermixed,random,large,color,#660fbd,negative,even,NA,NA,NA
1,1,21,judge,12,6,6,intermixed,random,large,color,NA,negative,even,arrowup,1,1464
1,1,22,cue,12,6,6,intermixed,random,large,color,#52970c,negative,even,NA,NA,NA
1,1,22,judge,12,6,6,intermixed,random,large,color,NA,negative,even,arrowdown,1,1454
1,1,23,cue,12,6,6,intermixed,random,large,color,#52970c,negative,even,NA,NA,NA
1,1,23,judge,12,6,6,intermixed,random,large,color,NA,negative,even,arrowup,1,1901
1,1,24,cue,12,6,6,intermixed,random,large,color,#660fbd,negative,even,NA,NA,NA
1,1,24,judge,12,6,6,intermixed,random,large,color,NA,negative,even,arrowdown,1,1131
1,1,25,cue,12,6,6,intermixed,random,large,color,#660fbd,negative,even,NA,NA,NA
1,1,25,judge,12,6,6,intermixed,random,large,color,NA,negative,even,arrowdown,1,781
1,1,26,cue,12,6,6,intermixed,random,large,color,#660fbd,negative,even,NA,NA,NA
1,1,26,judge,12,6,6,intermixed,random,large,color,NA,negative,even,arrowdown,1,1728
1,1,27,cue,12,6,6,intermixed,random,large,color,#ecb718,negative,even,NA,NA,NA
1,1,27,judge,12,6,6,intermixed,random,large,color,NA,negative,even,arrowup,1,1094
1,1,28,cue,12,6,6,intermixed,random,large,color,#0eaaaa,negative,even,NA,NA,NA
1,1,28,judge,12,6,6,intermixed,random,large,color,NA,negative,even,arrowdown,1,1717
1,1,29,cue,12,6,6,intermixed,random,large,color,#52970c,negative,even,NA,NA,NA
1,1,29,judge,12,6,6,intermixed,random,large,color,NA,negative,even,arrowdown,1,963
1,1,30,cue,12,6,6,intermixed,random,large,color,#ecb718,negative,even,NA,NA,NA
1,1,30,judge,12,6,6,intermixed,random,large,color,NA,negative,even,arrowup,1,1821
1,1,31,cue,12,6,6,intermixed,random,large,color,#e713b2,negative,even,NA,NA,NA
1,1,31,judge,12,6,6,intermixed,random,large,color,NA,negative,even,arrowup,1,1949
1,1,32,cue,12,6,6,intermixed,random,large,color,#660fbd,negative,even,NA,NA,NA
1,1,32,judge,12,6,6,intermixed,random,large,color,NA,negative,even,arrowup,1,1165
1,1,33,cue,12,6,6,intermixed,random,large,color,#0eaaaa,negative,even,NA,NA,NA
1,1,33,judge,12,6,6,intermixed,random,large,color,NA,negative,even,arrowup,1,2051
1,1,34,cue,12,6,6,intermixed,random,large,color,#52970c,negative,even,NA,NA,NA
1,1,34,judge,12,6,6,intermixed,random,large,color,NA,negative,even,arrowdown,1,1321
1,1,35,cue,12,6,6,intermixed,random,large,color,#ecb718,negative,even,NA,NA,NA
1,1,35,judge,12,6,6,intermixed,random,large,color,NA,negative,even,arrowup,1,1865
1,1,36,cue,12,6,6,intermixed,random,large,color,#2b5bee,negative,even,NA,NA,NA
1,1,36,judge,12,6,6,intermixed,random,large,color,NA,negative,even,arrowdown,1,787
1,1,37,cue,12,6,6,intermixed,random,large,color,#e713b2,negative,even,NA,NA,NA
1,1,37,judge,12,6,6,intermixed,random,large,color,NA,negative,even,arrowdown,1,1126
1,1,38,cue,12,6,6,intermixed,random,large,color,#52970c,negative,even,NA,NA,NA
1,1,38,judge,12,6,6,intermixed,random,large,color,NA,negative,even,arrowup,1,1965
1,1,39,cue,12,6,6,intermixed,random,large,color,#e713b2,negative,even,NA,NA,NA
1,1,39,judge,12,6,6,intermixed,random,large,color,NA,negative,even,arrowdown,1,2032
1,1,40,cue,12,6,6,intermixed,random,large,color,#0eaaaa,negative,even,NA,NA,NA
1,1,40,judge,12,6,6,intermixed,random,large,color,NA,negative,even,arrowdown,1,764
1,1,41,cue,12,6,6,intermixed,random,large,color,#ecb718,negative,even,NA,NA,NA
1,1,41,judge,12,6,6,intermixed,random,large,color,NA,negative,even,arrowdown,1,2124
1,1,42,cue,12,6,6,intermixed,random,large,color,#660fbd,negative,even,NA,NA,NA
1,1,42,judge,12,6,6,intermixed,random,large,color,NA,negative,even,arrowup,1,1481
1,1,43,cue,12,6,6,intermixed,random,large,color,#e21212,negative,even,NA,NA,NA
1,1,43,judge,12,6,6,intermixed,random,large,color,NA,negative,even,arrowup,1,1784
1,1,44,cue,12,6,6,intermixed,random,large,color,#0eaaaa,negative,even,NA,NA,NA
1,1,44,judge,12,6,6,intermixed,random,large,color,NA,negative,even,arrowup,1,815
1,1,45,cue,12,6,6,intermixed,random,large,color,#ecb718,negative,even,NA,NA,NA
1,1,45,judge,12,6,6,intermixed,random,large,color,NA,negative,even,arrowdown,1,1161
1,1,46,cue,12,6,6,intermixed,random,large,color,#660fbd,negative,even,NA,NA,NA
1,1,46,judge,12,6,6,intermixed,random,large,color,NA,negative,even,arrowdown,1,1794
1,1,47,cue,12,6,6,intermixed,random,large,color,#660fbd,negative,even,NA,NA,NA
1,1,47,judge,12,6,6,intermixed,random,large,color,NA,negative,even,arrowup,1,1715
1,1,48,cue,12,6,6,intermixed,random,large,color,#2b5bee,negative,even,NA,NA,NA
1,1,48,judge,12,6,6,intermixed,random,large,color,NA,negative,even,arrowdown,1,1293
1,1,49,cue,12,6,6,intermixed,random,large,color,#52970c,negative,even,NA,NA,NA
1,1,49,judge,12,6,6,intermixed,random,large,color,NA,negative,even,arrowup,1,1481
1,1,50,cue,12,6,6,intermixed,random,large,color,#e21212,negative,even,NA,NA,NA
1,1,50,judge,12,6,6,intermixed,random,large,color,NA,negative,even,arrowdown,1,1114
1,1,51,cue,12,6,6,intermixed,random,large,color,#52970c,negative,even,NA,NA,NA
1,1,51,judge,12,6,6,intermixed,random,large,color,NA,negative,even,arrowdown,1,1762
1,1,52,cue,12,6,6,intermixed,random,large,color,#52970c,negative,even,NA,NA,NA
1,1,52,judge,12,6,6,intermixed,random,large,color,NA,negative,even,arrowup,1,1901
1,1,53,cue,12,6,6,intermixed,random,large,color,#52970c,negative,even,NA,NA,NA
1,1,53,judge,12,6,6,intermixed,random,large,color,NA,negative,even,arrowup,1,1333
1,1,54,cue,12,6,6,intermixed,random,large,color,#ecb718,negative,even,NA,NA,NA
1,1,54,judge,12,6,6,intermixed,random,large,color,NA,negative,even,arrowup,1,697
1,1,55,cue,12,6,6,intermixed,random,large,color,#e21212,negative,even,NA,NA,NA
1,1,55,judge,12,6,6,intermixed,random,large,color,NA,negative,even,arrowup,1,2033
1,1,56,cue,12,6,6,intermixed,random,large,color,#2b5bee,negative,even,NA,NA,NA
1,1,56,judge,12,6,6,intermixed,random,large,color,NA,negative,even,arrowdown,1,1905
1,1,57,cue,12,6,6,intermixed,random,large,color,#2b5bee,negative,even,NA,NA,NA
1,1,57,judge,12,6,6,intermixed,random,large,color,NA,negative,even,arrowup,1,1647
1,1,58,cue,12,6,6,intermixed,random,large,color,#52970c,negative,even,NA,NA,NA
1,1,58,judge,12,6,6,intermixed,random,large,color,NA,negative,even,arrowdown,1,1849
1,1,59,cue,12,6,6,intermixed,random,large,color,#ecb718,negative,even,NA,NA,NA
1,1,59,judge,12,6,6,intermixed,random,large,color,NA,negative,even,arrowup,1,820
1,2,0,cue,12,6,6,intermixed,random,large,color,#52970c,neutral,even,NA,NA,NA
1,2,0,judge,12,6,6,intermixed,random,large,color,NA,neutral,even,arrowup,1,2295
1,2,1,cue,12,6,6,intermixed,random,large,color,#0eaaaa,neutral,even,NA,NA,NA
1,2,1,judge,12,6,6,intermixed,random,large,color,NA,neutral,even,arrowup,1,2035
1,2,2,cue,12,6,6,intermixed,random,large,color,#2b5bee,neutral,even,NA,NA,NA
1,2,2,judge,12,6,6,intermixed,random,large,color,NA,neutral,even,arrowdown,1,825
1,2,3,cue,12,6,6,intermixed,random,large,color,#e21212,neutral,even,NA,NA,NA
1,2,3,judge,12,6,6,intermixed,random,large,color,NA,neutral,even,arrowup,1,1882
1,2,4,cue,12,6,6,intermixed,random,large,color,#660fbd,neutral,even,NA,NA,NA
1,2,4,judge,12,6,6,intermixed,random,large,color,NA,neutral,even,arrowup,1,2186
1,2,5,cue,12,6,6,intermixed,random,large,color,#52970c,neutral,even,NA,NA,NA
1,2,5,judge,12,6,6,intermixed,random,large,color,NA,neutral,even,arrowdown,1,1276
1,2,6,cue,12,6,6,intermixed,random,large,color,#e21212,neutral,even,NA,NA,NA
1,2,6,judge,12,6,6,intermixed,random,large,color,NA,neutral,even,arrowdown,1,1505
1,2,7,cue,12,6,6,intermixed,random,large,color,#2b5bee,neutral,even,NA,NA,NA
1,2,7,judge,12,6,6,intermixed,random,large,color,NA,neutral,even,arrowup,1,1531
1,2,8,cue,12,6,6,intermixed,random,large,color,#52970c,neutral,even,NA,NA,NA
1,2,8,judge,12,6,6,intermixed,random,large,color,NA,neutral,even,arrowdown,1,2491
1,2,9,cue,12,6,6,intermixed,random,large,color,#660fbd,neutral,even,NA,NA,NA
1,2,9,judge,12,6,6,intermixed,random,large,color,NA,neutral,even,arrowdown,1,757
1,2,10,cue,12,6,6,intermixed,random,large,color,#2b5bee,neutral,even,NA,NA,NA
1,2,10,judge,12,6,6,intermixed,random,large,color,NA,neutral,even,arrowdown,1,2011
1,2,11,cue,12,6,6,intermixed,random,large,color,#0eaaaa,neutral,even,NA,NA,NA
1,2,11,judge,12,6,6,intermixed,random,large,color,NA,neutral,even,arrowdown,1,934
1,2,12,cue,12,6,6,intermixed,random,large,color,#0eaaaa,neutral,even,NA,NA,NA
1,2,12,judge,12,6,6,intermixed,random,large,color,NA,neutral,even,arrowup,1,858
1,2,13,cue,12,6,6,intermixed,random,large,color,#660fbd,neutral,even,NA,NA,NA
1,2,13,judge,12,6,6,intermixed,random,large,color,NA,neutral,even,arrowup,1,2783
1,2,14,cue,12,6,6,intermixed,random,large,color,#e713b2,neutral,even,NA,NA,NA
1,2,14,judge,12,6,6,intermixed,random,large,color,NA,neutral,even,arrowdown,1,2747
1,2,15,cue,12,6,6,intermixed,random,large,color,#0eaaaa,neutral,even,NA,NA,NA
1,2,15,judge,12,6,6,intermixed,random,large,color,NA,neutral,even,arrowdown,1,1981
1,2,16,cue,12,6,6,intermixed,random,large,color,#2b5bee,neutral,even,NA,NA,NA
1,2,16,judge,12,6,6,intermixed,random,large,color,NA,neutral,even,arrowup,1,2396
1,2,17,cue,12,6,6,intermixed,random,large,color,#e21212,neutral,even,NA,NA,NA
1,2,17,judge,12,6,6,intermixed,random,large,color,NA,neutral,even,arrowup,1,2966
1,2,18,cue,12,6,6,intermixed,random,large,color,#660fbd,neutral,even,NA,NA,NA
1,2,18,judge,12,6,6,intermixed,random,large,color,NA,neutral,even,arrowup,1,1312
1,2,19,cue,12,6,6,intermixed,random,large,color,#e21212,neutral,even,NA,NA,NA
1,2,19,judge,12,6,6,intermixed,random,large,color,NA,neutral,even,arrowup,1,1624
1,2,20,cue,12,6,6,intermixed,random,large,color,#e21212,neutral,even,NA,NA,NA
1,2,20,judge,12,6,6,intermixed,random,large,color,NA,neutral,even,arrowdown,1,3899
1,2,21,cue,12,6,6,intermixed,random,large,color,#0eaaaa,neutral,even,NA,NA,NA
1,2,21,judge,12,6,6,intermixed,random,large,color,NA,neutral,even,arrowup,1,1333
1,2,22,cue,12,6,6,intermixed,random,large,color,#e713b2,neutral,even,NA,NA,NA
1,2,22,judge,12,6,6,intermixed,random,large,color,NA,neutral,even,arrowdown,1,1674
1,2,23,cue,12,6,6,intermixed,random,large,color,#660fbd,neutral,even,NA,NA,NA
1,2,23,judge,12,6,6,intermixed,random,large,color,NA,neutral,even,arrowup,1,1979
1,2,24,cue,12,6,6,intermixed,random,large,color,#52970c,neutral,even,NA,NA,NA
1,2,24,judge,12,6,6,intermixed,random,large,color,NA,neutral,even,arrowdown,1,1179
1,2,25,cue,12,6,6,intermixed,random,large,color,#2b5bee,neutral,even,NA,NA,NA
1,2,25,judge,12,6,6,intermixed,random,large,color,NA,neutral,even,arrowup,1,2566
1,2,26,cue,12,6,6,intermixed,random,large,color,#52970c,neutral,even,NA,NA,NA
1,2,26,judge,12,6,6,intermixed,random,large,color,NA,neutral,even,arrowup,1,675
1,2,27,cue,12,6,6,intermixed,random,large,color,#ecb718,neutral,even,NA,NA,NA
1,2,27,judge,12,6,6,intermixed,random,large,color,NA,neutral,even,arrowdown,1,2251
1,2,28,cue,12,6,6,intermixed,random,large,color,#ecb718,neutral,even,NA,NA,NA
1,2,28,judge,12,6,6,intermixed,random,large,color,NA,neutral,even,arrowup,1,1974
1,2,29,cue,12,6,6,intermixed,random,large,color,#ecb718,neutral,even,NA,NA,NA
1,2,29,judge,12,6,6,intermixed,random,large,color,NA,neutral,even,arrowdown,1,2597
1,2,30,cue,12,6,6,intermixed,random,large,color,#ecb718,neutral,even,NA,NA,NA
1,2,30,judge,12,6,6,intermixed,random,large,color,NA,neutral,even,arrowdown,1,2257
1,2,31,cue,12,6,6,intermixed,random,large,color,#0eaaaa,neutral,even,NA,NA,NA
1,2,31,judge,12,6,6,intermixed,random,large,color,NA,neutral,even,arrowup,1,3047
1,2,32,cue,12,6,6,intermixed,random,large,color,#2b5bee,neutral,even,NA,NA,NA
1,2,32,judge,12,6,6,intermixed,random,large,color,NA,neutral,even,arrowdown,1,2740
1,2,33,cue,12,6,6,intermixed,random,large,color,#660fbd,neutral,even,NA,NA,NA
1,2,33,judge,12,6,6,intermixed,random,large,color,NA,neutral,even,arrowdown,1,1161
1,2,34,cue,12,6,6,intermixed,random,large,color,#e713b2,neutral,even,NA,NA,NA
1,2,34,judge,12,6,6,intermixed,random,large,color,NA,neutral,even,arrowdown,1,2563
1,2,35,cue,12,6,6,intermixed,random,large,color,#660fbd,neutral,even,NA,NA,NA
1,2,35,judge,12,6,6,intermixed,random,large,color,NA,neutral,even,arrowdown,1,3197
1,2,36,cue,12,6,6,intermixed,random,large,color,#ecb718,neutral,even,NA,NA,NA
1,2,36,judge,12,6,6,intermixed,random,large,color,NA,neutral,even,arrowdown,1,1708
1,2,37,cue,12,6,6,intermixed,random,large,color,#2b5bee,neutral,even,NA,NA,NA
1,2,37,judge,12,6,6,intermixed,random,large,color,NA,neutral,even,arrowdown,1,3848
1,2,38,cue,12,6,6,intermixed,random,large,color,#0eaaaa,neutral,even,NA,NA,NA
1,2,38,judge,12,6,6,intermixed,random,large,color,NA,neutral,even,arrowdown,1,756
1,2,39,cue,12,6,6,intermixed,random,large,color,#e713b2,neutral,even,NA,NA,NA
1,2,39,judge,12,6,6,intermixed,random,large,color,NA,neutral,even,arrowup,1,739
1,2,40,cue,12,6,6,intermixed,random,large,color,#2b5bee,neutral,even,NA,NA,NA
1,2,40,judge,12,6,6,intermixed,random,large,color,NA,neutral,even,arrowdown,1,1059
1,2,41,cue,12,6,6,intermixed,random,large,color,#660fbd,neutral,even,NA,NA,NA
1,2,41,judge,12,6,6,intermixed,random,large,color,NA,neutral,even,arrowup,1,2036
1,2,42,cue,12,6,6,intermixed,random,large,color,#52970c,neutral,even,NA,NA,NA
1,2,42,judge,12,6,6,intermixed,random,large,color,NA,neutral,even,arrowup,1,2761
1,2,43,cue,12,6,6,intermixed,random,large,color,#660fbd,neutral,even,NA,NA,NA
1,2,43,judge,12,6,6,intermixed,random,large,color,NA,neutral,even,arrowdown,1,1290
1,2,44,cue,12,6,6,intermixed,random,large,color,#2b5bee,neutral,even,NA,NA,NA
1,2,44,judge,12,6,6,intermixed,random,large,color,NA,neutral,even,arrowup,1,1194
1,2,45,cue,12,6,6,intermixed,random,large,color,#660fbd,neutral,even,NA,NA,NA
1,2,45,judge,12,6,6,intermixed,random,large,color,NA,neutral,even,arrowup,1,2132
1,2,46,cue,12,6,6,intermixed,random,large,color,#0eaaaa,neutral,even,NA,NA,NA
1,2,46,judge,12,6,6,intermixed,random,large,color,NA,neutral,even,arrowdown,1,1480
1,2,47,cue,12,6,6,intermixed,random,large,color,#660fbd,neutral,even,NA,NA,NA
1,2,47,judge,12,6,6,intermixed,random,large,color,NA,neutral,even,arrowdown,1,1171
1,2,48,cue,12,6,6,intermixed,random,large,color,#ecb718,neutral,even,NA,NA,NA
1,2,48,judge,12,6,6,intermixed,random,large,color,NA,neutral,even,arrowdown,1,2322
1,2,49,cue,12,6,6,intermixed,random,large,color,#0eaaaa,neutral,even,NA,NA,NA
1,2,49,judge,12,6,6,intermixed,random,large,color,NA,neutral,even,arrowdown,1,2256
1,2,50,cue,12,6,6,intermixed,random,large,color,#660fbd,neutral,even,NA,NA,NA
1,2,50,judge,12,6,6,intermixed,random,large,color,NA,neutral,even,arrowup,1,1308
1,2,51,cue,12,6,6,intermixed,random,large,color,#e713b2,neutral,even,NA,NA,NA
1,2,51,judge,12,6,6,intermixed,random,large,color,NA,neutral,even,arrowdown,1,805
1,2,52,cue,12,6,6,intermixed,random,large,color,#0eaaaa,neutral,even,NA,NA,NA
1,2,52,judge,12,6,6,intermixed,random,large,color,NA,neutral,even,arrowup,1,2835
1,2,53,cue,12,6,6,intermixed,random,large,color,#0eaaaa,neutral,even,NA,NA,NA
1,2,53,judge,12,6,6,intermixed,random,large,color,NA,neutral,even,arrowdown,1,1117
1,2,54,cue,12,6,6,intermixed,random,large,color,#660fbd,neutral,even,NA,NA,NA
1,2,54,judge,12,6,6,intermixed,random,large,color,NA,neutral,even,arrowup,1,766
1,2,55,cue,12,6,6,intermixed,random,large,color,#ecb718,neutral,even,NA,NA,NA
1,2,55,judge,12,6,6,intermixed,random,large,color,NA,neutral,even,arrowup,1,1236
1,2,56,cue,12,6,6,intermixed,random,large,color,#e21212,neutral,even,NA,NA,NA
1,2,56,judge,12,6,6,intermixed,random,large,color,NA,neutral,even,arrowdown,1,1968
1,2,57,cue,12,6,6,intermixed,random,large,color,#660fbd,neutral,even,NA,NA,NA
1,2,57,judge,12,6,6,intermixed,random,large,color,NA,neutral,even,arrowdown,1,2479
1,2,58,cue,12,6,6,intermixed,random,large,color,#e713b2,neutral,even,NA,NA,NA
1,2,58,judge,12,6,6,intermixed,random,large,color,NA,neutral,even,arrowup,1,2878
1,2,59,cue,12,6,6,intermixed,random,large,color,#e713b2,neutral,even,NA,NA,NA
1,2,59,judge,12,6,6,intermixed,random,large,color,NA,neutral,even,arrowdown,1,1996
2,0,0,cue,12,6,6,intermixed,random,large,color,#ecb718,positive,even,NA,NA,NA
2,0,0,judge,12,6,6,intermixed,random,large,color,NA,positive,even,arrowup,1,2188
2,0,1,cue,12,6,6,intermixed,random,large,color,#e21212,positive,even,NA,NA,NA
2,0,1,judge,12,6,6,intermixed,random,large,color,NA,positive,even,arrowdown,1,1570
2,0,2,cue,12,6,6,intermixed,random,large,color,#e21212,positive,even,NA,NA,NA
2,0,2,judge,12,6,6,intermixed,random,large,color,NA,positive,even,arrowdown,1,1660
2,0,3,cue,12,6,6,intermixed,random,large,color,#e713b2,positive,even,NA,NA,NA
2,0,3,judge,12,6,6,intermixed,random,large,color,NA,positive,even,arrowdown,1,1222
2,0,4,cue,12,6,6,intermixed,random,large,color,#52970c,positive,even,NA,NA,NA
2,0,4,judge,12,6,6,intermixed,random,large,color,NA,positive,even,arrowup,1,1886
2,0,5,cue,12,6,6,intermixed,random,large,color,#0eaaaa,positive,even,NA,NA,NA
2,0,5,judge,12,6,6,intermixed,random,large,color,NA,positive,even,arrowup,1,1654
2,0,6,cue,12,6,6,intermixed,random,large,color,#52970c,positive,even,NA,NA,NA
2,0,6,judge,12,6,6,intermixed,random,large,color,NA,positive,even,arrowdown,1,2097
2,0,7,cue,12,6,6,intermixed,random,large,color,#e21212,positive,even,NA,NA,NA
2,0,7,judge,12,6,6,intermixed,random,large,color,NA,positive,even,arrowdown,1,1307
2,0,8,cue,12,6,6,intermixed,random,large,color,#ecb718,positive,even,NA,NA,NA
2,0,8,judge,12,6,6,intermixed,random,large,color,NA,positive,even,arrowdown,1,1948
2,0,9,cue,12,6,6,intermixed,random,large,color,#e21212,positive,even,NA,NA,NA
2,0,9,judge,12,6,6,intermixed,random,large,color,NA,positive,even,arrowup,1,1662
2,0,10,cue,12,6,6,intermixed,random,large,color,#e713b2,positive,even,NA,NA,NA
2,0,10,judge,12,6,6,intermixed,random,large,color,NA,positive,even,arrowup,1,1457
2,0,11,cue,12,6,6,intermixed,random,large,color,#e21212,positive,even,NA,NA,NA
2,0,11,judge,12,6,6,intermixed,random,large,color,NA,positive,even,arrowup,1,1658
2,0,12,cue,12,6,6,intermixed,random,large,color,#52970c,positive,even,NA,NA,NA
2,0,12,judge,12,6,6,intermixed,random,large,color,NA,positive,even,arrowdown,1,1273
2,0,13,cue,12,6,6,intermixed,random,large,color,#0eaaaa,positive,even,NA,NA,NA
2,0,13,judge,12,6,6,intermixed,random,large,color,NA,positive,even,arrowdown,1,837
2,0,14,cue,12,6,6,intermixed,random,large,color,#52970c,positive,even,NA,NA,NA
2,0,14,judge,12,6,6,intermixed,random,large,color,NA,positive,even,arrowup,1,956
2,0,15,cue,12,6,6,intermixed,random,large,color,#660fbd,positive,even,NA,NA,NA
2,0,15,judge,12,6,6,intermixed,random,large,color,NA,positive,even,arrowdown,1,1704
2,0,16,cue,12,6,6,intermixed,random,large,color,#e21212,positive,even,NA,NA,NA
2,0,16,judge,12,6,6,intermixed,random,large,color,NA,positive,even,arrowdown,1,1129
2,0,17,cue,12,6,6,intermixed,random,large,color,#ecb718,positive,even,NA,NA,NA
2,0,17,judge,12,6,6,intermixed,random,large,color,NA,positive,even,arrowdown,1,939
2,0,18,cue,12,6,6,intermixed,random,large,color,#ecb718,positive,even,NA,NA,NA
2,0,18,judge,12,6,6,intermixed,random,large,color,NA,positive,even,arrowup,1,1206
2,0,19,cue,12,6,6,intermixed,random,large,color,#2b5bee,positive,even,NA,NA,NA
2,0,19,judge,12,6,6,intermixed,random,large,color,NA,positive,even,arrowup,1,902
2,0,20,cue,12,6,6,intermixed,random,large,color,#0eaaaa,positive,even,NA,NA,NA
2,0,20,judge,12,6,6,intermixed,random,large,color,NA,positive,even,arrowup,1,1874
2,0,21,cue,12,6,6,intermixed,random,large,color,#e21212,positive,even,NA,NA,NA
2,0,21,judge,12,6,6,intermixed,random,large,color,NA,positive,even,arrowup,1,991
2,0,22,cue,12,6,6,intermixed,random,large,color,#0eaaaa,positive,even,NA,NA,NA
2,0,22,judge,12,6,6,intermixed,random,large,color,NA,positive,even,arrowup,1,1079
2,0,23,cue,12,6,6,intermixed,random,large,color,#ecb718,positive,even,NA,NA,NA
2,0,23,judge,12,6,6,intermixed,random,large,color,NA,positive,even,arrowup,1,1388
2,0,24,cue,12,6,6,intermixed,random,large,color,#0eaaaa,positive,even,NA,NA,NA
2,0,24,judge,12,6,6,intermixed,random,large,color,NA,positive,even,arrowup,1,1662
2,0,25,cue,12,6,6,intermixed,random,large,color,#2b5bee,positive,even,NA,NA,NA
2,0,25,judge,12,6,6,intermixed,random,large,color,NA,positive,even,arrowdown,1,1000
2,0,26,cue,12,6,6,intermixed,random,large,color,#52970c,positive,even,NA,NA,NA
2,0,26,judge,12,6,6,intermixed,random,large,color,NA,positive,even,arrowup,1,1204
2,0,27,cue,12,6,6,intermixed,random,large,color,#0eaaaa,positive,even,NA,NA,NA
2,0,27,judge,12,6,6,intermixed,random,large,color,NA,positive,even,arrowup,1,1235
2,0,28,cue,12,6,6,intermixed,random,large,color,#2b5bee,positive,even,NA,NA,NA
2,0,28,judge,12,6,6,intermixed,random,large,color,NA,positive,even,arrowup,1,968
2,0,29,cue,12,6,6,intermixed,random,large,color,#e21212,positive,even,NA,NA,NA
2,0,29,judge,12,6,6,intermixed,random,large,color,NA,positive,even,arrowdown,1,955
2,0,30,cue,12,6,6,intermixed,random,large,color,#52970c,positive,even,NA,NA,NA
2,0,30,judge,12,6,6,intermixed,random,large,color,NA,positive,even,arrowup,1,1728
2,0,31,cue,12,6,6,intermixed,random,large,color,#0eaaaa,positive,even,NA,NA,NA
2,0,31,judge,12,6,6,intermixed,random,large,color,NA,positive,even,arrowdown,1,2040
2,0,32,cue,12,6,6,intermixed,random,large,color,#e21212,positive,even,NA,NA,NA
2,0,32,judge,12,6,6,intermixed,random,large,color,NA,positive,even,arrowdown,1,1429
2,0,33,cue,12,6,6,intermixed,random,large,color,#2b5bee,positive,even,NA,NA,NA
2,0,33,judge,12,6,6,intermixed,random,large,color,NA,positive,even,arrowup,1,1401
2,0,34,cue,12,6,6,intermixed,random,large,color,#e713b2,positive,even,NA,NA,NA
2,0,34,judge,12,6,6,intermixed,random,large,color,NA,positive,even,arrowup,1,1395
2,0,35,cue,12,6,6,intermixed,random,large,color,#ecb718,positive,even,NA,NA,NA
2,0,35,judge,12,6,6,intermixed,random,large,color,NA,positive,even,arrowdown,1,1694
2,0,36,cue,12,6,6,intermixed,random,large,color,#e713b2,positive,even,NA,NA,NA
2,0,36,judge,12,6,6,intermixed,random,large,color,NA,positive,even,arrowup,1,1949
2,0,37,cue,12,6,6,intermixed,random,large,color,#660fbd,positive,even,NA,NA,NA
2,0,37,judge,12,6,6,intermixed,random,large,color,NA,positive,even,arrowdown,1,1997
2,0,38,cue,12,6,6,intermixed,random,large,color,#660fbd,positive,even,NA,NA,NA
2,0,38,judge,12,6,6,intermixed,random,large,color,NA,positive,even,arrowup,1,1400
2,0,39,cue,12,6,6,intermixed,random,large,color,#660fbd,positive,even,NA,NA,NA
2,0,39,judge,12,6,6,intermixed,random,large,color,NA,positive,even,arrowup,1,1842
2,0,40,cue,12,6,6,intermixed,random,large,color,#660fbd,positive,even,NA,NA,NA
2,0,40,judge,12,6,6,intermixed,random,large,color,NA,positive,even,arrowup,1,1882
2,0,41,cue,12,6,6,intermixed,random,large,color,#660fbd,positive,even,NA,NA,NA
2,0,41,judge,12,6,6,intermixed,random,large,color,NA,positive,even,arrowdown,1,1135
2,0,42,cue,12,6,6,intermixed,random,large,color,#52970c,positive,even,NA,NA,NA
2,0,42,judge,12,6,6,intermixed,random,large,color,NA,positive,even,arrowup,1,729
2,0,43,cue,12,6,6,intermixed,random,large,color,#e713b2,positive,even,NA,NA,NA
2,0,43,judge,12,6,6,intermixed,random,large,color,NA,positive,even,arrowdown,1,1234
2,0,44,cue,12,6,6,intermixed,random,large,color,#e21212,positive,even,NA,NA,NA
2,0,44,judge,12,6,6,intermixed,random,large,color,NA,positive,even,arrowdown,1,1268
2,0,45,cue,12,6,6,intermixed,random,large,color,#e713b2,positive,even,NA,NA,NA
2,0,45,judge,12,6,6,intermixed,random,large,color,NA,positive,even,arrowdown,1,828
2,0,46,cue,12,6,6,intermixed,random,large,color,#ecb718,positive,even,NA,NA,NA
2,0,46,judge,12,6,6,intermixed,random,large,color,NA,positive,even,arrowup,1,1417
2,0,47,cue,12,6,6,intermixed,random,large,color,#ecb718,positive,even,NA,NA,NA
2,0,47,judge,12,6,6,intermixed,random,large,color,NA,positive,even,arrowup,1,754
2,0,48,cue,12,6,6,intermixed,random,large,color,#2b5bee,positive,even,NA,NA,NA
2,0,48,judge,12,6,6,intermixed,random,large,color,NA,positive,even,arrowup,1,1671
2,0,49,cue,12,6,6,intermixed,random,large,color,#e713b2,positive,even,NA,NA,NA
2,0,49,judge,12,6,6,intermixed,random,large,color,NA,positive,even,arrowdown,1,1690
2,0,50,cue,12,6,6,intermixed,random,large,color,#2b5bee,positive,even,NA,NA,NA
2,0,50,judge,12,6,6,intermixed,random,large,color,NA,positive,even,arrowdown,1,1279
2,0,51,cue,12,6,6,intermixed,random,large,color,#e21212,positive,even,NA,NA,NA
2,0,51,judge,12,6,6,intermixed,random,large,color,NA,positive,even,arrowdown,1,1001
2,0,52,cue,12,6,6,intermixed,random,large,color,#660fbd,positive,even,NA,NA,NA
2,0,52,judge,12,6,6,intermixed,random,large,color,NA,positive,even,arrowdown,1,953
2,0,53,cue,12,6,6,intermixed,random,large,color,#e713b2,positive,even,NA,NA,NA
2,0,53,judge,12,6,6,intermixed,random,large,color,NA,positive,even,arrowup,1,1128
2,0,54,cue,12,6,6,intermixed,random,large,color,#660fbd,positive,even,NA,NA,NA
2,0,54,judge,12,6,6,intermixed,random,large,color,NA,positive,even,arrowup,1,1091
2,0,55,cue,12,6,6,intermixed,random,large,color,#e713b2,positive,even,NA,NA,NA
2,0,55,judge,12,6,6,intermixed,random,large,color,NA,positive,even,arrowup,1,1392
2,0,56,cue,12,6,6,intermixed,random,large,color,#660fbd,positive,even,NA,NA,NA
2,0,56,judge,12,6,6,intermixed,random,large,color,NA,positive,even,arrowup,1,1286
2,0,57,cue,12,6,6,intermixed,random,large,color,#ecb718,positive,even,NA,NA,NA
2,0,57,judge,12,6,6,intermixed,random,large,color,NA,positive,even,arrowup,1,1865
2,0,58,cue,12,6,6,intermixed,random,large,color,#0eaaaa,positive,even,NA,NA,NA
2,0,58,judge,12,6,6,intermixed,random,large,color,NA,positive,even,arrowdown,1,1900
2,0,59,cue,12,6,6,intermixed,random,large,color,#52970c,positive,even,NA,NA,NA
2,0,59,judge,12,6,6,intermixed,random,large,color,NA,positive,even,arrowup,1,1207
2,1,0,cue,12,6,6,intermixed,random,large,color,#52970c,negative,even,NA,NA,NA
2,1,0,judge,12,6,6,intermixed,random,large,color,NA,negative,even,arrowup,1,1590
2,1,1,cue,12,6,6,intermixed,random,large,color,#ecb718,negative,even,NA,NA,NA
2,1,1,judge,12,6,6,intermixed,random,large,color,NA,negative,even,arrowdown,1,2747
2,1,2,cue,12,6,6,intermixed,random,large,color,#52970c,negative,even,NA,NA,NA
2,1,2,judge,12,6,6,intermixed,random,large,color,NA,negative,even,arrowdown,1,905
2,1,3,cue,12,6,6,intermixed,random,large,color,#660fbd,negative,even,NA,NA,NA
2,1,3,judge,12,6,6,intermixed,random,large,color,NA,negative,even,arrowup,1,1289
2,1,4,cue,12,6,6,intermixed,random,large,color,#0eaaaa,negative,even,NA,NA,NA
2,1,4,judge,12,6,6,intermixed,random,large,color,NA,negative,even,arrowdown,1,1024
2,1,5,cue,12,6,6,intermixed,random,large,color,#660fbd,negative,even,NA,NA,NA
2,1,5,judge,12,6,6,intermixed,random,large,color,NA,negative,even,arrowdown,1,955
2,1,6,cue,12,6,6,intermixed,random,large,color,#e21212,negative,even,NA,NA,NA
2,1,6,judge,12,6,6,intermixed,random,large,color,NA,negative,even,arrowdown,1,1597
2,1,7,cue,12,6,6,intermixed,random,large,color,#ecb718,negative,even,NA,NA,NA
2,1,7,judge,12,6,6,intermixed,random,large,color,NA,negative,even,arrowdown,1,1878
2,1,8,cue,12,6,6,intermixed,random,large,color,#ecb718,negative,even,NA,NA,NA
2,1,8,judge,12,6,6,intermixed,random,large,color,NA,negative,even,arrowdown,1,1405
2,1,9,cue,12,6,6,intermixed,random,large,color,#0eaaaa,negative,even,NA,NA,NA
2,1,9,judge,12,6,6,intermixed,random,large,color,NA,negative,even,arrowup,1,2041
2,1,10,cue,12,6,6,intermixed,random,large,color,#e21212,negative,even,NA,NA,NA
2,1,10,judge,12,6,6,intermixed,random,large,color,NA,negative,even,arrowdown,1,1444
2,1,11,cue,12,6,6,intermixed,random,large,color,#e21212,negative,even,NA,NA,NA
2,1,11,judge,12,6,6,intermixed,random,large,color,NA,negative,even,arrowup,1,805
2,1,12,cue,12,6,6,intermixed,random,large,color,#0eaaaa,negative,even,NA,NA,NA
2,1,12,judge,12,6,6,intermixed,random,large,color,NA,negative,even,arrowup,1,1349
2,1,13,cue,12,6,6,intermixed,random,large,color,#0eaaaa,negative,even,NA,NA,NA
2,1,13,judge,12,6,6,intermixed,random,large,color,NA,negative,even,arrowup,1,1765
2,1,14,cue,12,6,6,intermixed,random,large,color,#ecb718,negative,even,NA,NA,NA
2,1,14,judge,12,6,6,intermixed,random,large,color,NA,negative,even,arrowdown,1,1528
2,1,15,cue,12,6,6,intermixed,random,large,color,#e713b2,negative,even,NA,NA,NA
2,1,15,judge,12,6,6,intermixed,random,large,color,NA,negative,even,arrowup,1,1152
2,1,16,cue,12,6,6,intermixed,random,large,color,#ecb718,negative,even,NA,NA,NA
2,1,16,judge,12,6,6,intermixed,random,large,color,NA,negative,even,arrowdown,1,1502
2,1,17,cue,12,6,6,intermixed,random,large,color,#ecb718,negative,even,NA,NA,NA
2,1,17,judge,12,6,6,intermixed,random,large,color,NA,negative,even,arrowdown,1,1332
2,1,18,cue,12,6,6,intermixed,random,large,color,#660fbd,negative,even,NA,NA,NA
2,1,18,judge,12,6,6,intermixed,random,large,color,NA,negative,even,arrowup,1,1063
2,1,19,cue,12,6,6,intermixed,random,large,color,#660fbd,negative,even,NA,NA,NA
2,1,19,judge,12,6,6,intermixed,random,large,color,NA,negative,even,arrowup,1,1039
2,1,20,cue,12,6,6,intermixed,random,large,color,#ecb718,negative,even,NA,NA,NA
2,1,20,judge,12,6,6,intermixed,random,large,color,NA,negative,even,arrowdown,1,877
2,1,21,cue,12,6,6,intermixed,random,large,color,#e21212,negative,even,NA,NA,NA
2,1,21,judge,12,6,6,intermixed,random,large,color,NA,negative,even,arrowup,1,1611
2,1,22,cue,12,6,6,intermixed,random,large,color,#52970c,negative,even,NA,NA,NA
2,1,22,judge,12,6,6,intermixed,random,large,color,NA,negative,even,arrowdown,1,1894
2,1,23,cue,12,6,6,intermixed,random,large,color,#e713b2,negative,even,NA,NA,NA
2,1,23,judge,12,6,6,intermixed,random,large,color,NA,negative,even,arrowdown,1,1150
2,1,24,cue,12,6,6,intermixed,random,large,color,#0eaaaa,negative,even,NA,NA,NA
2,1,24,judge,12,6,6,intermixed,random,large,color,NA,negative,even,arrowdown,1,1637
2,1,25,cue,12,6,6,intermixed,random,large,color,#ecb718,negative,even,NA,NA,NA
2,1,25,judge,12,6,6,intermixed,random,large,color,NA,negative,even,arrowdown,1,1599
2,1,26,cue,12,6,6,intermixed,random,large,color,#ecb718,negative,even,NA,NA,NA
2,1,26,judge,12,6,6,intermixed,random,large,color,NA,negative,even,arrowdown,1,956
2,1,27,cue,12,6,6,intermixed,random,large,color,#660fbd,negative,even,NA,NA,NA
2,1,27,judge,12,6,6,intermixed,random,large,color,NA,negative,even,arrowdown,1,1511
2,1,28,cue,12,6,6,intermixed,random,large,color,#2b5bee,negative,even,NA,NA,NA
2,1,28,judge,12,6,6,intermixed,random,large,color,NA,negative,even,arrowup,1,1024
2,1,29,cue,12,6,6,intermixed,random,large,color,#e713b2,negative,even,NA,NA,NA
2,1,29,judge,12,6,6,intermixed,random,large,color,NA,negative,even,arrowdown,1,792
2,1,30,cue,12,6,6,intermixed,random,large,color,#2b5bee,negative,even,NA,NA,NA
2,1,30,judge,12,6,6,intermixed,random,large,color,NA,negative,even,arrowup,1,892
2,1,31,cue,12,6,6,intermixed,random,large,color,#2b5bee,negative,even,NA,NA,NA
2,1,31,judge,12,6,6,intermixed,random,large,color,NA,negative,even,arrowdown,1,1953
2,1,32,cue,12,6,6,intermixed,random,large,color,#0eaaaa,negative,even,NA,NA,NA
2,1,32,judge,12,6,6,intermixed,random,large,color,NA,negative,even,arrowup,1,1218
2,1,33,cue,12,6,6,intermixed,random,large,color,#e21212,negative,even,NA,NA,NA
2,1,33,judge,12,6,6,intermixed,random,large,color,NA,negative,even,arrowdown,1,1262
2,1,34,cue,12,6,6,intermixed,random,large,color,#ecb718,negative,even,NA,NA,NA
2,1,34,judge,12,6,6,intermixed,random,large,color,NA,negative,even,arrowdown,1,1271
2,1,35,cue,12,6,6,intermixed,random,large,color,#0eaaaa,negative,even,NA,NA,NA
2,1,35,judge,12,6,6,intermixed,random,large,color,NA,negative,even,arrowup,1,1980
2,1,36,cue,12,6,6,intermixed,random,large,color,#e21212,negative,even,NA,NA,NA
2,1,36,judge,12,6,6,intermixed,random,large,color,NA,negative,even,arrowup,1,1533
2,1,37,cue,12,6,6,intermixed,random,large,color,#ecb718,negative,even,NA,NA,NA
2,1,37,judge,12,6,6,intermixed,random,large,color,NA,negative,even,arrowdown,1,2188
2,1,38,cue,12,6,6,intermixed,random,large,color,#0eaaaa,negative,even,NA,NA,NA
2,1,38,judge,12,6,6,intermixed,random,large,color,NA,negative,even,arrowdown,1,1412
2,1,39,cue,12,6,6,intermixed,random,large,color,#52970c,negative,even,NA,NA,NA
2,1,39,judge,12,6,6,intermixed,random,large,color,NA,negative,even,arrowdown,1,3076
2,1,40,cue,12,6,6,intermixed,random,large,color,#2b5bee,negative,even,NA,NA,NA
2,1,40,judge,12,6,6,intermixed,random,large,color,NA,negative,even,arrowup,1,1355
2,1,41,cue,12,6,6,intermixed,random,large,color,#2b5bee,negative,even,NA,NA,NA
2,1,41,judge,12,6,6,intermixed,random,large,color,NA,negative,even,arrowdown,1,1164
2,1,42,cue,12,6,6,intermixed,random,large,color,#ecb718,negative,even,NA,NA,NA
2,1,42,judge,12,6,6,intermixed,random,large,color,NA,negative,even,arrowup,1,1362
2,1,43,cue,12,6,6,intermixed,random,large,color,#e713b2,negative,even,NA,NA,NA
2,1,43,judge,12,6,6,intermixed,random,large,color,NA,negative,even,arrowdown,1,1291
2,1,44,cue,12,6,6,intermixed,random,large,color,#52970c,negative,even,NA,NA,NA
2,1,44,judge,12,6,6,intermixed,random,large,color,NA,negative,even,arrowdown,1,1322
2,1,45,cue,12,6,6,intermixed,random,large,color,#52970c,negative,even,NA,NA,NA
2,1,45,judge,12,6,6,intermixed,random,large,color,NA,negative,even,arrowdown,1,721
2,1,46,cue,12,6,6,intermixed,random,large,color,#e21212,negative,even,NA,NA,NA
2,1,46,judge,12,6,6,intermixed,random,large,color,NA,negative,even,arrowdown,1,731
2,1,47,cue,12,6,6,intermixed,random,large,color,#2b5bee,negative,even,NA,NA,NA
2,1,47,judge,12,6,6,intermixed,random,large,color,NA,negative,even,arrowup,1,1476
2,1,48,cue,12,6,6,intermixed,random,large,color,#e21212,negative,even,NA,NA,NA
2,1,48,judge,12,6,6,intermixed,random,large,color,NA,negative,even,arrowdown,1,696
2,1,49,cue,12,6,6,intermixed,random,large,color,#ecb718,negative,even,NA,NA,NA
2,1,49,judge,12,6,6,intermixed,random,large,color,NA,negative,even,arrowup,1,1681
2,1,50,cue,12,6,6,intermixed,random,large,color,#e21212,negative,even,NA,NA,NA
2,1,50,judge,12,6,6,intermixed,random,large,color,NA,negative,even,arrowup,1,1765
2,1,51,cue,12,6,6,intermixed,random,large,color,#e21212,negative,even,NA,NA,NA
2,1,51,judge,12,6,6,intermixed,random,large,color,NA,negative,even,arrowdown,1,830
2,1,52,cue,12,6,6,intermixed,random,large,color,#660fbd,negative,even,NA,NA,NA
2,1,52,judge,12,6,6,intermixed,random,large,color,NA,negative,even,arrowdown,1,923
2,1,53,cue,12,6,6,intermixed,random,large,color,#52970c,negative,even,NA,NA,NA
2,1,53,judge,12,6,6,intermixed,random,large,color,NA,negative,even,arrowup,1,1361
2,1,54,cue,12,6,6,intermixed,random,large,color,#e21212,negative,even,NA,NA,NA
2,1,54,judge,12,6,6,intermixed,random,large,color,NA,negative,even,arrowup,1,1430
2,1,55,cue,12,6,6,intermixed,random,large,color,#2b5bee,negative,even,NA,NA,NA
2,1,55,judge,12,6,6,intermixed,random,large,color,NA,negative,even,arrowup,1,866
2,1,56,cue,12,6,6,intermixed,random,large,color,#e713b2,negative,even,NA,NA,NA
2,1,56,judge,12,6,6,intermixed,random,large,color,NA,negative,even,arrowdown,1,1974
2,1,57,cue,12,6,6,intermixed,random,large,color,#2b5bee,negative,even,NA,NA,NA
2,1,57,judge,12,6,6,intermixed,random,large,color,NA,negative,even,arrowup,1,1036
2,1,58,cue,12,6,6,intermixed,random,large,color,#e713b2,negative,even,NA,NA,NA
2,1,58,judge,12,6,6,intermixed,random,large,color,NA,negative,even,arrowup,1,981
2,1,59,cue,12,6,6,intermixed,random,large,color,#660fbd,negative,even,NA,NA,NA
2,1,59,judge,12,6,6,intermixed,random,large,color,NA,negative,even,arrowdown,1,2277
2,2,0,cue,12,6,6,intermixed,random,large,color,#0eaaaa,neutral,even,NA,NA,NA
2,2,0,judge,12,6,6,intermixed,random,large,color,NA,neutral,even,arrowdown,1,3964
2,2,1,cue,12,6,6,intermixed,random,large,color,#e713b2,neutral,even,NA,NA,NA
2,2,1,judge,12,6,6,intermixed,random,large,color,NA,neutral,even,arrowdown,1,974
2,2,2,cue,12,6,6,intermixed,random,large,color,#660fbd,neutral,even,NA,NA,NA
2,2,2,judge,12,6,6,intermixed,random,large,color,NA,neutral,even,arrowdown,1,5660
2,2,3,cue,12,6,6,intermixed,random,large,color,#0eaaaa,neutral,even,NA,NA,NA
2,2,3,judge,12,6,6,intermixed,random,large,color,NA,neutral,even,arrowup,1,1711
2,2,4,cue,12,6,6,intermixed,random,large,color,#e713b2,neutral,even,NA,NA,NA
2,2,4,judge,12,6,6,intermixed,random,large,color,NA,neutral,even,arrowdown,1,2651
2,2,5,cue,12,6,6,intermixed,random,large,color,#0eaaaa,neutral,even,NA,NA,NA
2,2,5,judge,12,6,6,intermixed,random,large,color,NA,neutral,even,arrowup,1,3495
2,2,6,cue,12,6,6,intermixed,random,large,color,#e713b2,neutral,even,NA,NA,NA
2,2,6,judge,12,6,6,intermixed,random,large,color,NA,neutral,even,arrowup,1,1487
2,2,7,cue,12,6,6,intermixed,random,large,color,#660fbd,neutral,even,NA,NA,NA
2,2,7,judge,12,6,6,intermixed,random,large,color,NA,neutral,even,arrowdown,1,4521
2,2,8,cue,12,6,6,intermixed,random,large,color,#660fbd,neutral,even,NA,NA,NA
2,2,8,judge,12,6,6,intermixed,random,large,color,NA,neutral,even,arrowdown,1,1006
2,2,9,cue,12,6,6,intermixed,random,large,color,#2b5bee,neutral,even,NA,NA,NA
2,2,9,judge,12,6,6,intermixed,random,large,color,NA,neutral,even,arrowup,1,1934
2,2,10,cue,12,6,6,intermixed,random,large,color,#0eaaaa,neutral,even,NA,NA,NA
2,2,10,judge,12,6,6,intermixed,random,large,color,NA,neutral,even,arrowup,1,4111
2,2,11,cue,12,6,6,intermixed,random,large,color,#e21212,neutral,even,NA,NA,NA
2,2,11,judge,12,6,6,intermixed,random,large,color,NA,neutral,even,arrowup,1,2366
2,2,12,cue,12,6,6,intermixed,random,large,color,#e21212,neutral,even,NA,NA,NA
2,2,12,judge,12,6,6,intermixed,random,large,color,NA,neutral,even,arrowup,1,1566
2,2,13,cue,12,6,6,intermixed,random,large,color,#2b5bee,neutral,even,NA,NA,NA
2,2,13,judge,12,6,6,intermixed,random,large,color,NA,neutral,even,arrowup,1,1165
2,2,14,cue,12,6,6,intermixed,random,large,color,#e21212,neutral,even,NA,NA,NA
2,2,14,judge,12,6,6,intermixed,random,large,color,NA,neutral,even,arrowdown,1,2895
2,2,15,cue,12,6,6,intermixed,random,large,color,#e713b2,neutral,even,NA,NA,NA
2,2,15,judge,12,6,6,intermixed,random,large,color,NA,neutral,even,arrowup,1,2402
2,2,16,cue,12,6,6,intermixed,random,large,color,#0eaaaa,neutral,even,NA,NA,NA
2,2,16,judge,12,6,6,intermixed,random,large,color,NA,neutral,even,arrowdown,1,1876
2,2,17,cue,12,6,6,intermixed,random,large,color,#52970c,neutral,even,NA,NA,NA
2,2,17,judge,12,6,6,intermixed,random,large,color,NA,neutral,even,arrowup,1,1276
2,2,18,cue,12,6,6,intermixed,random,large,color,#e21212,neutral,even,NA,NA,NA
2,2,18,judge,12,6,6,intermixed,random,large,color,NA,neutral,even,arrowdown,1,1292
2,2,19,cue,12,6,6,intermixed,random,large,color,#2b5bee,neutral,even,NA,NA,NA
2,2,19,judge,12,6,6,intermixed,random,large,color,NA,neutral,even,arrowup,1,2580
2,2,20,cue,12,6,6,intermixed,random,large,color,#e21212,neutral,even,NA,NA,NA
2,2,20,judge,12,6,6,intermixed,random,large,color,NA,neutral,even,arrowdown,1,1726
2,2,21,cue,12,6,6,intermixed,random,large,color,#e21212,neutral,even,NA,NA,NA
2,2,21,judge,12,6,6,intermixed,random,large,color,NA,neutral,even,arrowdown,1,1065
2,2,22,cue,12,6,6,intermixed,random,large,color,#2b5bee,neutral,even,NA,NA,NA
2,2,22,judge,12,6,6,intermixed,random,large,color,NA,neutral,even,arrowup,1,2650
2,2,23,cue,12,6,6,intermixed,random,large,color,#e713b2,neutral,even,NA,NA,NA
2,2,23,judge,12,6,6,intermixed,random,large,color,NA,neutral,even,arrowdown,1,2415
2,2,24,cue,12,6,6,intermixed,random,large,color,#52970c,neutral,even,NA,NA,NA
2,2,24,judge,12,6,6,intermixed,random,large,color,NA,neutral,even,arrowup,1,867
2,2,25,cue,12,6,6,intermixed,random,large,color,#e713b2,neutral,even,NA,NA,NA
2,2,25,judge,12,6,6,intermixed,random,large,color,NA,neutral,even,arrowdown,1,735
2,2,26,cue,12,6,6,intermixed,random,large,color,#2b5bee,neutral,even,NA,NA,NA
2,2,26,judge,12,6,6,intermixed,random,large,color,NA,neutral,even,arrowdown,1,1298
2,2,27,cue,12,6,6,intermixed,random,large,color,#ecb718,neutral,even,NA,NA,NA
2,2,27,judge,12,6,6,intermixed,random,large,color,NA,neutral,even,arrowup,1,1252
2,2,28,cue,12,6,6,intermixed,random,large,color,#2b5bee,neutral,even,NA,NA,NA
2,2,28,judge,12,6,6,intermixed,random,large,color,NA,neutral,even,arrowup,1,2555
2,2,29,cue,12,6,6,intermixed,random,large,color,#e713b2,neutral,even,NA,NA,NA
2,2,29,judge,12,6,6,intermixed,random,large,color,NA,neutral,even,arrowdown,1,1495
2,2,30,cue,12,6,6,intermixed,random,large,color,#e21212,neutral,even,NA,NA,NA
2,2,30,judge,12,6,6,intermixed,random,large,color,NA,neutral,even,arrowdown,1,937
2,2,31,cue,12,6,6,intermixed,random,large,color,#52970c,neutral,even,NA,NA,NA
2,2,31,judge,12,6,6,intermixed,random,large,color,NA,neutral,even,arrowup,1,845
2,2,32,cue,12,6,6,intermixed,random,large,color,#660fbd,neutral,even,NA,NA,NA
2,2,32,judge,12,6,6,intermixed,random,large,color,NA,neutral,even,arrowdown,1,1416
2,2,33,cue,12,6,6,intermixed,random,large,color,#2b5bee,neutral,even,NA,NA,NA
2,2,33,judge,12,6,6,intermixed,random,large,color,NA,neutral,even,arrowup,1,2082
2,2,34,cue,12,6,6,intermixed,random,large,color,#e713b2,neutral,even,NA,NA,NA
2,2,34,judge,12,6,6,intermixed,random,large,color,NA,neutral,even,arrowdown,1,2685
2,2,35,cue,12,6,6,intermixed,random,large,color,#0eaaaa,neutral,even,NA,NA,NA
2,2,35,judge,12,6,6,intermixed,random,large,color,NA,neutral,even,arrowdown,1,3354
2,2,36,cue,12,6,6,intermixed,random,large,color,#660fbd,neutral,even,NA,NA,NA
2,2,36,judge,12,6,6,intermixed,random,large,color,NA,neutral,even,arrowup,1,2723
2,2,37,cue,12,6,6,intermixed,random,large,color,#0eaaaa,neutral,even,NA,NA,NA
2,2,37,judge,12,6,6,intermixed,random,large,color,NA,neutral,even,arrowdown,1,3695
2,2,38,cue,12,6,6,intermixed,random,large,color,#52970c,neutral,even,NA,NA,NA
2,2,38,judge,12,6,6,intermixed,random,large,color,NA,neutral,even,arrowup,0,1856
2,2,39,cue,12,6,6,intermixed,random,large,color,#ecb718,neutral,even,NA,NA,NA
2,2,39,judge,12,6,6,intermixed,random,large,color,NA,neutral,even,arrowup,1,2125
2,2,40,cue,12,6,6,intermixed,random,large,color,#660fbd,neutral,even,NA,NA,NA
2,2,40,judge,12,6,6,intermixed,random,large,color,NA,neutral,even,arrowdown,1,1316
2,2,41,cue,12,6,6,intermixed,random,large,color,#660fbd,neutral,even,NA,NA,NA
2,2,41,judge,12,6,6,intermixed,random,large,color,NA,neutral,even,arrowup,1,3935
2,2,42,cue,12,6,6,intermixed,random,large,color,#660fbd,neutral,even,NA,NA,NA
2,2,42,judge,12,6,6,intermixed,random,large,color,NA,neutral,even,arrowdown,1,1636
2,2,43,cue,12,6,6,intermixed,random,large,color,#e21212,neutral,even,NA,NA,NA
2,2,43,judge,12,6,6,intermixed,random,large,color,NA,neutral,even,arrowdown,1,2218
2,2,44,cue,12,6,6,intermixed,random,large,color,#52970c,neutral,even,NA,NA,NA
2,2,44,judge,12,6,6,intermixed,random,large,color,NA,neutral,even,arrowup,1,1011
2,2,45,cue,12,6,6,intermixed,random,large,color,#2b5bee,neutral,even,NA,NA,NA
2,2,45,judge,12,6,6,intermixed,random,large,color,NA,neutral,even,arrowup,1,1156
2,2,46,cue,12,6,6,intermixed,random,large,color,#e713b2,neutral,even,NA,NA,NA
2,2,46,judge,12,6,6,intermixed,random,large,color,NA,neutral,even,arrowup,1,1715
2,2,47,cue,12,6,6,intermixed,random,large,color,#660fbd,neutral,even,NA,NA,NA
2,2,47,judge,12,6,6,intermixed,random,large,color,NA,neutral,even,arrowdown,1,3617
2,2,48,cue,12,6,6,intermixed,random,large,color,#e713b2,neutral,even,NA,NA,NA
2,2,48,judge,12,6,6,intermixed,random,large,color,NA,neutral,even,arrowdown,1,2623
2,2,49,cue,12,6,6,intermixed,random,large,color,#2b5bee,neutral,even,NA,NA,NA
2,2,49,judge,12,6,6,intermixed,random,large,color,NA,neutral,even,arrowdown,1,4470
2,2,50,cue,12,6,6,intermixed,random,large,color,#52970c,neutral,even,NA,NA,NA
2,2,50,judge,12,6,6,intermixed,random,large,color,NA,neutral,even,arrowdown,1,2977
2,2,51,cue,12,6,6,intermixed,random,large,color,#e713b2,neutral,even,NA,NA,NA
2,2,51,judge,12,6,6,intermixed,random,large,color,NA,neutral,even,arrowup,1,4840
2,2,52,cue,12,6,6,intermixed,random,large,color,#e713b2,neutral,even,NA,NA,NA
2,2,52,judge,12,6,6,intermixed,random,large,color,NA,neutral,even,arrowup,1,1196
2,2,53,cue,12,6,6,intermixed,random,large,color,#0eaaaa,neutral,even,NA,NA,NA
2,2,53,judge,12,6,6,intermixed,random,large,color,NA,neutral,even,arrowup,1,2126
2,2,54,cue,12,6,6,intermixed,random,large,color,#2b5bee,neutral,even,NA,NA,NA
2,2,54,judge,12,6,6,intermixed,random,large,color,NA,neutral,even,arrowdown,1,1736
2,2,55,cue,12,6,6,intermixed,random,large,color,#e713b2,neutral,even,NA,NA,NA
2,2,55,judge,12,6,6,intermixed,random,large,color,NA,neutral,even,arrowdown,1,1410
2,2,56,cue,12,6,6,intermixed,random,large,color,#ecb718,neutral,even,NA,NA,NA
2,2,56,judge,12,6,6,intermixed,random,large,color,NA,neutral,even,arrowup,1,796
2,2,57,cue,12,6,6,intermixed,random,large,color,#0eaaaa,neutral,even,NA,NA,NA
2,2,57,judge,12,6,6,intermixed,random,large,color,NA,neutral,even,arrowdown,1,1816
2,2,58,cue,12,6,6,intermixed,random,large,color,#ecb718,neutral,even,NA,NA,NA
2,2,58,judge,12,6,6,intermixed,random,large,color,NA,neutral,even,arrowup,1,668
2,2,59,cue,12,6,6,intermixed,random,large,color,#e713b2,neutral,even,NA,NA,NA
2,2,59,judge,12,6,6,intermixed,random,large,color,NA,neutral,even,arrowdown,1,2674
2,0,0,cue,12,6,6,intermixed,random,large,location,,negative,even,NA,NA,NA
2,0,0,judge,12,6,6,intermixed,random,large,location,NA,negative,even,arrowdown,1,1012
2,0,1,cue,12,6,6,intermixed,random,large,location,,negative,even,NA,NA,NA
2,0,1,judge,12,6,6,intermixed,random,large,location,NA,negative,even,arrowup,1,1774
2,0,2,cue,12,6,6,intermixed,random,large,location,,negative,even,NA,NA,NA
2,0,2,judge,12,6,6,intermixed,random,large,location,NA,negative,even,arrowup,1,1650
2,0,3,cue,12,6,6,intermixed,random,large,location,,negative,even,NA,NA,NA
2,0,3,judge,12,6,6,intermixed,random,large,location,NA,negative,even,arrowdown,1,884
2,0,4,cue,12,6,6,intermixed,random,large,location,,negative,even,NA,NA,NA
2,0,4,judge,12,6,6,intermixed,random,large,location,NA,negative,even,arrowdown,1,1050
2,0,5,cue,12,6,6,intermixed,random,large,location,,negative,even,NA,NA,NA
2,0,5,judge,12,6,6,intermixed,random,large,location,NA,negative,even,arrowdown,1,1783
2,0,6,cue,12,6,6,intermixed,random,large,location,,negative,even,NA,NA,NA
2,0,6,judge,12,6,6,intermixed,random,large,location,NA,negative,even,arrowup,1,1369
2,0,7,cue,12,6,6,intermixed,random,large,location,,negative,even,NA,NA,NA
2,0,7,judge,12,6,6,intermixed,random,large,location,NA,negative,even,arrowdown,1,2020
2,0,8,cue,12,6,6,intermixed,random,large,location,,negative,even,NA,NA,NA
2,0,8,judge,12,6,6,intermixed,random,large,location,NA,negative,even,arrowup,1,821
2,0,9,cue,12,6,6,intermixed,random,large,location,,negative,even,NA,NA,NA
2,0,9,judge,12,6,6,intermixed,random,large,location,NA,negative,even,arrowup,1,735
2,0,10,cue,12,6,6,intermixed,random,large,location,,negative,even,NA,NA,NA
2,0,10,judge,12,6,6,intermixed,random,large,location,NA,negative,even,arrowup,1,1762
2,0,11,cue,12,6,6,intermixed,random,large,location,,negative,even,NA,NA,NA
2,0,11,judge,12,6,6,intermixed,random,large,location,NA,negative,even,arrowdown,1,1467
2,0,12,cue,12,6,6,intermixed,random,large,location,,negative,even,NA,NA,NA
2,0,12,judge,12,6,6,intermixed,random,large,location,NA,negative,even,arrowup,1,2184
2,0,13,cue,12,6,6,intermixed,random,large,location,,negative,even,NA,NA,NA
2,0,13,judge,12,6,6,intermixed,random,large,location,NA,negative,even,arrowup,1,714
2,0,14,cue,12,6,6,intermixed,random,large,location,,negative,even,NA,NA,NA
2,0,14,judge,12,6,6,intermixed,random,large,location,NA,negative,even,arrowup,1,1841
2,0,15,cue,12,6,6,intermixed,random,large,location,,negative,even,NA,NA,NA
2,0,15,judge,12,6,6,intermixed,random,large,location,NA,negative,even,arrowdown,1,2018
2,0,16,cue,12,6,6,intermixed,random,large,location,,negative,even,NA,NA,NA
2,0,16,judge,12,6,6,intermixed,random,large,location,NA,negative,even,arrowup,1,1831
2,0,17,cue,12,6,6,intermixed,random,large,location,,negative,even,NA,NA,NA
2,0,17,judge,12,6,6,intermixed,random,large,location,NA,negative,even,arrowdown,1,1100
2,0,18,cue,12,6,6,intermixed,random,large,location,,negative,even,NA,NA,NA
2,0,18,judge,12,6,6,intermixed,random,large,location,NA,negative,even,arrowdown,1,1298
2,0,19,cue,12,6,6,intermixed,random,large,location,,negative,even,NA,NA,NA
2,0,19,judge,12,6,6,intermixed,random,large,location,NA,negative,even,arrowdown,1,1439
2,0,20,cue,12,6,6,intermixed,random,large,location,,negative,even,NA,NA,NA
2,0,20,judge,12,6,6,intermixed,random,large,location,NA,negative,even,arrowup,1,1949
2,0,21,cue,12,6,6,intermixed,random,large,location,,negative,even,NA,NA,NA
2,0,21,judge,12,6,6,intermixed,random,large,location,NA,negative,even,arrowdown,1,1488
2,0,22,cue,12,6,6,intermixed,random,large,location,,negative,even,NA,NA,NA
2,0,22,judge,12,6,6,intermixed,random,large,location,NA,negative,even,arrowup,1,1105
2,0,23,cue,12,6,6,intermixed,random,large,location,,negative,even,NA,NA,NA
2,0,23,judge,12,6,6,intermixed,random,large,location,NA,negative,even,arrowup,1,609
2,0,24,cue,12,6,6,intermixed,random,large,location,,negative,even,NA,NA,NA
2,0,24,judge,12,6,6,intermixed,random,large,location,NA,negative,even,arrowup,1,2439
2,0,25,cue,12,6,6,intermixed,random,large,location,,negative,even,NA,NA,NA
2,0,25,judge,12,6,6,intermixed,random,large,location,NA,negative,even,arrowup,1,650
2,0,26,cue,12,6,6,intermixed,random,large,location,,negative,even,NA,NA,NA
2,0,26,judge,12,6,6,intermixed,random,large,location,NA,negative,even,arrowup,1,1929
2,0,27,cue,12,6,6,intermixed,random,large,location,,negative,even,NA,NA,NA
2,0,27,judge,12,6,6,intermixed,random,large,location,NA,negative,even,arrowup,1,1912
2,0,28,cue,12,6,6,intermixed,random,large,location,,negative,even,NA,NA,NA
2,0,28,judge,12,6,6,intermixed,random,large,location,NA,negative,even,arrowup,1,792
2,0,29,cue,12,6,6,intermixed,random,large,location,,negative,even,NA,NA,NA
2,0,29,judge,12,6,6,intermixed,random,large,location,NA,negative,even,arrowdown,1,947
2,0,30,cue,12,6,6,intermixed,random,large,location,,negative,even,NA,NA,NA
2,0,30,judge,12,6,6,intermixed,random,large,location,NA,negative,even,arrowdown,1,1249
2,0,31,cue,12,6,6,intermixed,random,large,location,,negative,even,NA,NA,NA
2,0,31,judge,12,6,6,intermixed,random,large,location,NA,negative,even,arrowdown,1,1454
2,0,32,cue,12,6,6,intermixed,random,large,location,,negative,even,NA,NA,NA
2,0,32,judge,12,6,6,intermixed,random,large,location,NA,negative,even,arrowup,1,1455
2,0,33,cue,12,6,6,intermixed,random,large,location,,negative,even,NA,NA,NA
2,0,33,judge,12,6,6,intermixed,random,large,location,NA,negative,even,arrowdown,1,925
2,0,34,cue,12,6,6,intermixed,random,large,location,,negative,even,NA,NA,NA
2,0,34,judge,12,6,6,intermixed,random,large,location,NA,negative,even,arrowup,1,876
2,0,35,cue,12,6,6,intermixed,random,large,location,,negative,even,NA,NA,NA
2,0,35,judge,12,6,6,intermixed,random,large,location,NA,negative,even,arrowup,1,779
2,0,36,cue,12,6,6,intermixed,random,large,location,,negative,even,NA,NA,NA
2,0,36,judge,12,6,6,intermixed,random,large,location,NA,negative,even,arrowup,1,643
2,0,37,cue,12,6,6,intermixed,random,large,location,,negative,even,NA,NA,NA
2,0,37,judge,12,6,6,intermixed,random,large,location,NA,negative,even,arrowup,1,513
2,0,38,cue,12,6,6,intermixed,random,large,location,,negative,even,NA,NA,NA
2,0,38,judge,12,6,6,intermixed,random,large,location,NA,negative,even,arrowdown,1,987
2,0,39,cue,12,6,6,intermixed,random,large,location,,negative,even,NA,NA,NA
2,0,39,judge,12,6,6,intermixed,random,large,location,NA,negative,even,arrowup,1,956
2,0,40,cue,12,6,6,intermixed,random,large,location,,negative,even,NA,NA,NA
2,0,40,judge,12,6,6,intermixed,random,large,location,NA,negative,even,arrowdown,1,1075
2,0,41,cue,12,6,6,intermixed,random,large,location,,negative,even,NA,NA,NA
2,0,41,judge,12,6,6,intermixed,random,large,location,NA,negative,even,arrowup,1,1062
2,0,42,cue,12,6,6,intermixed,random,large,location,,negative,even,NA,NA,NA
2,0,42,judge,12,6,6,intermixed,random,large,location,NA,negative,even,arrowdown,1,932
2,0,43,cue,12,6,6,intermixed,random,large,location,,negative,even,NA,NA,NA
2,0,43,judge,12,6,6,intermixed,random,large,location,NA,negative,even,arrowup,1,1609
2,0,44,cue,12,6,6,intermixed,random,large,location,,negative,even,NA,NA,NA
2,0,44,judge,12,6,6,intermixed,random,large,location,NA,negative,even,arrowup,1,1636
2,0,45,cue,12,6,6,intermixed,random,large,location,,negative,even,NA,NA,NA
2,0,45,judge,12,6,6,intermixed,random,large,location,NA,negative,even,arrowup,1,738
2,0,46,cue,12,6,6,intermixed,random,large,location,,negative,even,NA,NA,NA
2,0,46,judge,12,6,6,intermixed,random,large,location,NA,negative,even,arrowdown,1,847
2,0,47,cue,12,6,6,intermixed,random,large,location,,negative,even,NA,NA,NA
2,0,47,judge,12,6,6,intermixed,random,large,location,NA,negative,even,arrowdown,1,956
2,0,48,cue,12,6,6,intermixed,random,large,location,,negative,even,NA,NA,NA
2,0,48,judge,12,6,6,intermixed,random,large,location,NA,negative,even,arrowdown,1,1129
2,0,49,cue,12,6,6,intermixed,random,large,location,,negative,even,NA,NA,NA
2,0,49,judge,12,6,6,intermixed,random,large,location,NA,negative,even,arrowup,1,1496
2,0,50,cue,12,6,6,intermixed,random,large,location,,negative,even,NA,NA,NA
2,0,50,judge,12,6,6,intermixed,random,large,location,NA,negative,even,arrowup,1,677
2,0,51,cue,12,6,6,intermixed,random,large,location,,negative,even,NA,NA,NA
2,0,51,judge,12,6,6,intermixed,random,large,location,NA,negative,even,arrowup,1,616
2,0,52,cue,12,6,6,intermixed,random,large,location,,negative,even,NA,NA,NA
2,0,52,judge,12,6,6,intermixed,random,large,location,NA,negative,even,arrowdown,1,627
2,0,53,cue,12,6,6,intermixed,random,large,location,,negative,even,NA,NA,NA
2,0,53,judge,12,6,6,intermixed,random,large,location,NA,negative,even,arrowup,1,1558
2,0,54,cue,12,6,6,intermixed,random,large,location,,negative,even,NA,NA,NA
2,0,54,judge,12,6,6,intermixed,random,large,location,NA,negative,even,arrowup,1,1940
2,0,55,cue,12,6,6,intermixed,random,large,location,,negative,even,NA,NA,NA
2,0,55,judge,12,6,6,intermixed,random,large,location,NA,negative,even,arrowdown,1,632
2,0,56,cue,12,6,6,intermixed,random,large,location,,negative,even,NA,NA,NA
2,0,56,judge,12,6,6,intermixed,random,large,location,NA,negative,even,arrowup,1,1546
2,0,57,cue,12,6,6,intermixed,random,large,location,,negative,even,NA,NA,NA
2,0,57,judge,12,6,6,intermixed,random,large,location,NA,negative,even,arrowdown,1,798
2,0,58,cue,12,6,6,intermixed,random,large,location,,negative,even,NA,NA,NA
2,0,58,judge,12,6,6,intermixed,random,large,location,NA,negative,even,arrowdown,1,1192
2,0,59,cue,12,6,6,intermixed,random,large,location,,negative,even,NA,NA,NA
2,0,59,judge,12,6,6,intermixed,random,large,location,NA,negative,even,arrowdown,1,1440
2,1,0,cue,12,6,6,intermixed,random,large,location,,positive,even,NA,NA,NA
2,1,0,judge,12,6,6,intermixed,random,large,location,NA,positive,even,arrowdown,1,1356
2,1,1,cue,12,6,6,intermixed,random,large,location,,positive,even,NA,NA,NA
2,1,1,judge,12,6,6,intermixed,random,large,location,NA,positive,even,arrowup,1,930
2,1,2,cue,12,6,6,intermixed,random,large,location,,positive,even,NA,NA,NA
2,1,2,judge,12,6,6,intermixed,random,large,location,NA,positive,even,arrowdown,1,1395
2,1,3,cue,12,6,6,intermixed,random,large,location,,positive,even,NA,NA,NA
2,1,3,judge,12,6,6,intermixed,random,large,location,NA,positive,even,arrowup,1,1449
2,1,4,cue,12,6,6,intermixed,random,large,location,,positive,even,NA,NA,NA
2,1,4,judge,12,6,6,intermixed,random,large,location,NA,positive,even,arrowdown,1,1985
2,1,5,cue,12,6,6,intermixed,random,large,location,,positive,even,NA,NA,NA
2,1,5,judge,12,6,6,intermixed,random,large,location,NA,positive,even,arrowup,1,631
2,1,6,cue,12,6,6,intermixed,random,large,location,,positive,even,NA,NA,NA
2,1,6,judge,12,6,6,intermixed,random,large,location,NA,positive,even,arrowdown,1,1703
2,1,7,cue,12,6,6,intermixed,random,large,location,,positive,even,NA,NA,NA
2,1,7,judge,12,6,6,intermixed,random,large,location,NA,positive,even,arrowdown,1,630
2,1,8,cue,12,6,6,intermixed,random,large,location,,positive,even,NA,NA,NA
2,1,8,judge,12,6,6,intermixed,random,large,location,NA,positive,even,arrowup,1,2914
2,1,9,cue,12,6,6,intermixed,random,large,location,,positive,even,NA,NA,NA
2,1,9,judge,12,6,6,intermixed,random,large,location,NA,positive,even,arrowdown,1,614
2,1,10,cue,12,6,6,intermixed,random,large,location,,positive,even,NA,NA,NA
2,1,10,judge,12,6,6,intermixed,random,large,location,NA,positive,even,arrowdown,1,1306
2,1,11,cue,12,6,6,intermixed,random,large,location,,positive,even,NA,NA,NA
2,1,11,judge,12,6,6,intermixed,random,large,location,NA,positive,even,arrowup,1,1732
2,1,12,cue,12,6,6,intermixed,random,large,location,,positive,even,NA,NA,NA
2,1,12,judge,12,6,6,intermixed,random,large,location,NA,positive,even,arrowup,1,749
2,1,13,cue,12,6,6,intermixed,random,large,location,,positive,even,NA,NA,NA
2,1,13,judge,12,6,6,intermixed,random,large,location,NA,positive,even,arrowup,1,1137
2,1,14,cue,12,6,6,intermixed,random,large,location,,positive,even,NA,NA,NA
2,1,14,judge,12,6,6,intermixed,random,large,location,NA,positive,even,arrowdown,1,1232
2,1,15,cue,12,6,6,intermixed,random,large,location,,positive,even,NA,NA,NA
2,1,15,judge,12,6,6,intermixed,random,large,location,NA,positive,even,arrowup,1,1278
2,1,16,cue,12,6,6,intermixed,random,large,location,,positive,even,NA,NA,NA
2,1,16,judge,12,6,6,intermixed,random,large,location,NA,positive,even,arrowdown,1,596
2,1,17,cue,12,6,6,intermixed,random,large,location,,positive,even,NA,NA,NA
2,1,17,judge,12,6,6,intermixed,random,large,location,NA,positive,even,arrowdown,1,1274
2,1,18,cue,12,6,6,intermixed,random,large,location,,positive,even,NA,NA,NA
2,1,18,judge,12,6,6,intermixed,random,large,location,NA,positive,even,arrowup,0,1360
2,1,19,cue,12,6,6,intermixed,random,large,location,,positive,even,NA,NA,NA
2,1,19,judge,12,6,6,intermixed,random,large,location,NA,positive,even,arrowdown,1,1566
2,1,20,cue,12,6,6,intermixed,random,large,location,,positive,even,NA,NA,NA
2,1,20,judge,12,6,6,intermixed,random,large,location,NA,positive,even,arrowup,1,1299
2,1,21,cue,12,6,6,intermixed,random,large,location,,positive,even,NA,NA,NA
2,1,21,judge,12,6,6,intermixed,random,large,location,NA,positive,even,arrowup,1,1293
2,1,22,cue,12,6,6,intermixed,random,large,location,,positive,even,NA,NA,NA
