participant,block,trial,screenID,setsize,nTarget,nDistractor,layout,colorCon,radius,cueType,cueColor,condition,ratio,correct,acc,RT
20,0,0,cue,8,2,6,intermixed,random,large,color,#2b5bee,negative,even,NA,NA,NA
20,0,0,judge,8,2,6,intermixed,random,large,color,NA,negative,even,arrowdown,1,1720
20,0,1,cue,6,4,2,intermixed,random,large,color,#2b5bee,negative,even,NA,NA,NA
20,0,1,judge,6,4,2,intermixed,random,large,color,NA,negative,even,arrowdown,1,1775
20,0,2,cue,6,4,2,intermixed,random,large,color,#ecb718,negative,even,NA,NA,NA
20,0,2,judge,6,4,2,intermixed,random,large,color,NA,negative,even,arrowdown,1,3664
20,0,3,cue,6,4,2,intermixed,random,large,color,#660fbd,negative,even,NA,NA,NA
20,0,3,judge,6,4,2,intermixed,random,large,color,NA,negative,even,arrowdown,1,2306
20,0,4,cue,10,6,4,intermixed,random,large,color,#e21212,negative,even,NA,NA,NA
20,0,4,judge,10,6,4,intermixed,random,large,color,NA,negative,even,arrowup,1,1670
20,0,5,cue,6,2,4,intermixed,random,large,color,#52970c,negative,even,NA,NA,NA
20,0,5,judge,6,2,4,intermixed,random,large,color,NA,negative,even,arrowdown,1,1347
20,0,6,cue,10,4,6,intermixed,random,large,color,#52970c,negative,even,NA,NA,NA
20,0,6,judge,10,4,6,intermixed,random,large,color,NA,negative,even,arrowup,1,1984
20,0,7,cue,8,6,2,intermixed,random,large,color,#e713b2,negative,even,NA,NA,NA
20,0,7,judge,8,6,2,intermixed,random,large,color,NA,negative,even,arrowdown,1,2261
20,0,8,cue,12,6,6,intermixed,random,large,color,#e713b2,negative,even,NA,NA,NA
20,0,8,judge,12,6,6,intermixed,random,large,color,NA,negative,even,arrowdown,1,2768
20,0,9,cue,8,6,2,intermixed,random,large,color,#0eaaaa,negative,even,NA,NA,NA
20,0,9,judge,8,6,2,intermixed,random,large,color,NA,negative,even,arrowdown,1,4472
20,0,10,cue,10,4,6,intermixed,random,large,color,#e713b2,negative,even,NA,NA,NA
20,0,10,judge,10,4,6,intermixed,random,large,color,NA,negative,even,arrowdown,1,2765
20,0,11,cue,6,4,2,intermixed,random,large,color,#52970c,negative,even,NA,NA,NA
20,0,11,judge,6,4,2,intermixed,random,large,color,NA,negative,even,arrowup,1,2129
20,0,12,cue,12,6,6,intermixed,random,large,color,#e713b2,negative,even,NA,NA,NA
20,0,12,judge,12,6,6,intermixed,random,large,color,NA,negative,even,arrowup,1,4545
20,0,13,cue,4,2,2,intermixed,random,large,color,#52970c,negative,even,NA,NA,NA
20,0,13,judge,4,2,2,intermixed,random,large,color,NA,negative,even,arrowup,1,1852
20,0,14,cue,6,2,4,intermixed,random,large,color,#e21212,negative,even,NA,NA,NA
20,0,14,judge,6,2,4,intermixed,random,large,color,NA,negative,even,arrowup,1,1286
20,0,15,cue,8,6,2,intermixed,random,large,color,#0eaaaa,negative,even,NA,NA,NA
20,0,15,judge,8,6,2,intermixed,random,large,color,NA,negative,even,arrowdown,1,2374
20,0,16,cue,8,4,4,intermixed,random,large,color,#660fbd,negative,even,NA,NA,NA
20,0,16,judge,8,4,4,intermixed,random,large,color,NA,negative,even,arrowup,1,2493
20,0,17,cue,12,6,6,intermixed,random,large,color,#0eaaaa,negative,even,NA,NA,NA
20,0,17,judge,12,6,6,intermixed,random,large,color,NA,negative,even,arrowdown,1,2641
20,0,18,cue,4,2,2,intermixed,random,large,color,#52970c,negative,even,NA,NA,NA
20,0,18,judge,4,2,2,intermixed,random,large,color,NA,negative,even,arrowup,1,1906
20,0,19,cue,8,4,4,intermixed,random,large,color,#2b5bee,negative,even,NA,NA,NA
20,0,19,judge,8,4,4,intermixed,random,large,color,NA,negative,even,arrowdown,1,1802
20,0,20,cue,10,6,4,intermixed,random,large,color,#660fbd,negative,even,NA,NA,NA
20,0,20,judge,10,6,4,intermixed,random,large,color,NA,negative,even,arrowup,1,1775
20,0,21,cue,4,2,2,intermixed,random,large,color,#ecb718,negative,even,NA,NA,NA
20,0,21,judge,4,2,2,intermixed,random,large,color,NA,negative,even,arrowup,1,1163
20,0,22,cue,6,2,4,intermixed,random,large,color,#660fbd,negative,even,NA,NA,NA
20,0,22,judge,6,2,4,intermixed,random,large,color,NA,negative,even,arrowdown,1,1202
20,0,23,cue,10,4,6,intermixed,random,large,color,#e713b2,negative,even,NA,NA,NA
20,0,23,judge,10,4,6,intermixed,random,large,color,NA,negative,even,arrowup,1,1573
20,0,24,cue,8,4,4,intermixed,random,large,color,#0eaaaa,negative,even,NA,NA,NA
20,0,24,judge,8,4,4,intermixed,random,large,color,NA,negative,even,arrowup,1,2000
20,0,25,cue,8,4,4,intermixed,random,large,color,#660fbd,negative,even,NA,NA,NA
20,0,25,judge,8,4,4,intermixed,random,large,color,NA,negative,even,arrowdown,1,1109
20,0,26,cue,8,2,6,intermixed,random,large,color,#ecb718,negative,even,NA,NA,NA
20,0,26,judge,8,2,6,intermixed,random,large,color,NA,negative,even,arrowdown,1,1483
20,0,27,cue,6,2,4,intermixed,random,large,color,#660fbd,negative,even,NA,NA,NA
20,0,27,judge,6,2,4,intermixed,random,large,color,NA,negative,even,arrowdown,1,1296
20,0,28,cue,8,2,6,intermixed,random,large,color,#e21212,negative,even,NA,NA,NA
20,0,28,judge,8,2,6,intermixed,random,large,color,NA,negative,even,arrowdown,1,1971
20,0,29,cue,4,2,2,intermixed,random,large,color,#ecb718,negative,even,NA,NA,NA
20,0,29,judge,4,2,2,intermixed,random,large,color,NA,negative,even,arrowdown,1,1791
20,0,30,cue,10,4,6,intermixed,random,large,color,#e21212,negative,even,NA,NA,NA
20,0,30,judge,10,4,6,intermixed,random,large,color,NA,negative,even,arrowdown,1,1865
20,0,31,cue,8,6,2,intermixed,random,large,color,#0eaaaa,negative,even,NA,NA,NA
20,0,31,judge,8,6,2,intermixed,random,large,color,NA,negative,even,arrowup,1,1852
20,0,32,cue,8,2,6,intermixed,random,large,color,#e21212,negative,even,NA,NA,NA
20,0,32,judge,8,2,6,intermixed,random,large,color,NA,negative,even,arrowup,1,1141
20,0,33,cue,4,2,2,intermixed,random,large,color,#0eaaaa,negative,even,NA,NA,NA
20,0,33,judge,4,2,2,intermixed,random,large,color,NA,negative,even,arrowdown,1,1441
20,0,34,cue,8,2,6,intermixed,random,large,color,#0eaaaa,negative,even,NA,NA,NA
20,0,34,judge,8,2,6,intermixed,random,large,color,NA,negative,even,arrowup,1,1398
20,0,35,cue,10,4,6,intermixed,random,large,color,#52970c,negative,even,NA,NA,NA
20,0,35,judge,10,4,6,intermixed,random,large,color,NA,negative,even,arrowdown,1,2695
20,0,36,cue,10,4,6,intermixed,random,large,color,#e21212,negative,even,NA,NA,NA
20,0,36,judge,10,4,6,intermixed,random,large,color,NA,negative,even,arrowup,1,1848
20,0,37,cue,6,2,4,intermixed,random,large,color,#0eaaaa,negative,even,NA,NA,NA
20,0,37,judge,6,2,4,intermixed,random,large,color,NA,negative,even,arrowup,1,1127
20,0,38,cue,12,6,6,intermixed,random,large,color,#0eaaaa,negative,even,NA,NA,NA
20,0,38,judge,12,6,6,intermixed,random,large,color,NA,negative,even,arrowup,1,2071
20,0,39,cue,8,2,6,intermixed,random,large,color,#ecb718,negative,even,NA,NA,NA
20,0,39,judge,8,2,6,intermixed,random,large,color,NA,negative,even,arrowup,1,1278
20,0,40,cue,10,6,4,intermixed,random,large,color,#660fbd,negative,even,NA,NA,NA
20,0,40,judge,10,6,4,intermixed,random,large,color,NA,negative,even,arrowdown,1,2750
20,0,41,cue,10,4,6,intermixed,random,large,color,#e713b2,negative,even,NA,NA,NA
20,0,41,judge,10,4,6,intermixed,random,large,color,NA,negative,even,arrowdown,1,1631
20,0,42,cue,8,4,4,intermixed,random,large,color,#e21212,negative,even,NA,NA,NA
20,0,42,judge,8,4,4,intermixed,random,large,color,NA,negative,even,arrowup,1,1348
20,0,43,cue,10,4,6,intermixed,random,large,color,#e713b2,negative,even,NA,NA,NA
20,0,43,judge,10,4,6,intermixed,random,large,color,NA,negative,even,arrowup,1,1406
20,0,44,cue,10,4,6,intermixed,random,large,color,#ecb718,negative,even,NA,NA,NA
20,0,44,judge,10,4,6,intermixed,random,large,color,NA,negative,even,arrowdown,1,1356
20,0,45,cue,10,6,4,intermixed,random,large,color,#660fbd,negative,even,NA,NA,NA
20,0,45,judge,10,6,4,intermixed,random,large,color,NA,negative,even,arrowdown,1,1086
20,0,46,cue,10,6,4,intermixed,random,large,color,#52970c,negative,even,NA,NA,NA
20,0,46,judge,10,6,4,intermixed,random,large,color,NA,negative,even,arrowdown,1,3512
20,0,47,cue,8,4,4,intermixed,random,large,color,#ecb718,negative,even,NA,NA,NA
20,0,47,judge,8,4,4,intermixed,random,large,color,NA,negative,even,arrowdown,1,2186
20,0,48,cue,6,2,4,intermixed,random,large,color,#ecb718,negative,even,NA,NA,NA
20,0,48,judge,6,2,4,intermixed,random,large,color,NA,negative,even,arrowup,1,1087
20,0,49,cue,4,2,2,intermixed,random,large,color,#660fbd,negative,even,NA,NA,NA
20,0,49,judge,4,2,2,intermixed,random,large,color,NA,negative,even,arrowdown,1,1175
20,0,50,cue,4,2,2,intermixed,random,large,color,#ecb718,negative,even,NA,NA,NA
20,0,50,judge,4,2,2,intermixed,random,large,color,NA,negative,even,arrowup,1,1239
20,0,51,cue,10,6,4,intermixed,random,large,color,#e21212,negative,even,NA,NA,NA
20,0,51,judge,10,6,4,intermixed,random,large,color,NA,negative,even,arrowup,1,1433
20,0,52,cue,8,6,2,intermixed,random,large,color,#0eaaaa,negative,even,NA,NA,NA
20,0,52,judge,8,6,2,intermixed,random,large,color,NA,negative,even,arrowdown,1,1720
20,0,53,cue,4,2,2,intermixed,random,large,color,#0eaaaa,negative,even,NA,NA,NA
20,0,53,judge,4,2,2,intermixed,random,large,color,NA,negative,even,arrowup,1,1593
20,0,54,cue,6,4,2,intermixed,random,large,color,#660fbd,negative,even,NA,NA,NA
20,0,54,judge,6,4,2,intermixed,random,large,color,NA,negative,even,arrowdown,1,2210
20,0,55,cue,10,6,4,intermixed,random,large,color,#52970c,negative,even,NA,NA,NA
20,0,55,judge,10,6,4,intermixed,random,large,color,NA,negative,even,arrowdown,1,2962
20,0,56,cue,8,6,2,intermixed,random,large,color,#660fbd,negative,even,NA,NA,NA
20,0,56,judge,8,6,2,intermixed,random,large,color,NA,negative,even,arrowdown,1,1519
20,0,57,cue,8,4,4,intermixed,random,large,color,#e713b2,negative,even,NA,NA,NA
20,0,57,judge,8,4,4,intermixed,random,large,color,NA,negative,even,arrowup,1,4231
20,0,58,cue,6,2,4,intermixed,random,large,color,#2b5bee,negative,even,NA,NA,NA
20,0,58,judge,6,2,4,intermixed,random,large,color,NA,negative,even,arrowup,1,1577
20,0,59,cue,4,2,2,intermixed,random,large,color,#2b5bee,negative,even,NA,NA,NA
20,0,59,judge,4,2,2,intermixed,random,large,color,NA,negative,even,arrowup,1,1648
20,0,60,cue,10,6,4,intermixed,random,large,color,#2b5bee,negative,even,NA,NA,NA
20,0,60,judge,10,6,4,intermixed,random,large,color,NA,negative,even,arrowup,1,1814
20,0,61,cue,8,2,6,intermixed,random,large,color,#52970c,negative,even,NA,NA,NA
20,0,61,judge,8,2,6,intermixed,random,large,color,NA,negative,even,arrowup,1,1494
20,0,62,cue,12,6,6,intermixed,random,large,color,#52970c,negative,even,NA,NA,NA
20,0,62,judge,12,6,6,intermixed,random,large,color,NA,negative,even,arrowup,1,2029
20,0,63,cue,8,2,6,intermixed,random,large,color,#52970c,negative,even,NA,NA,NA
20,0,63,judge,8,2,6,intermixed,random,large,color,NA,negative,even,arrowdown,1,1147
20,0,64,cue,8,2,6,intermixed,random,large,color,#e713b2,negative,even,NA,NA,NA
20,0,64,judge,8,2,6,intermixed,random,large,color,NA,negative,even,arrowup,1,1080
20,0,65,cue,8,4,4,intermixed,random,large,color,#e21212,negative,even,NA,NA,NA
20,0,65,judge,8,4,4,intermixed,random,large,color,NA,negative,even,arrowup,1,1615
20,0,66,cue,8,4,4,intermixed,random,large,color,#0eaaaa,negative,even,NA,NA,NA
20,0,66,judge,8,4,4,intermixed,random,large,color,NA,negative,even,arrowup,1,1633
20,0,67,cue,10,4,6,intermixed,random,large,color,#ecb718,negative,even,NA,NA,NA
20,0,67,judge,10,4,6,intermixed,random,large,color,NA,negative,even,arrowup,1,1881
20,0,68,cue,12,6,6,intermixed,random,large,color,#e713b2,negative,even,NA,NA,NA
20,0,68,judge,12,6,6,intermixed,random,large,color,NA,negative,even,arrowup,1,1552
20,0,69,cue,6,2,4,intermixed,random,large,color,#e21212,negative,even,NA,NA,NA
20,0,69,judge,6,2,4,intermixed,random,large,color,NA,negative,even,arrowup,1,1037
20,0,70,cue,8,4,4,intermixed,random,large,color,#e713b2,negative,even,NA,NA,NA
20,0,70,judge,8,4,4,intermixed,random,large,color,NA,negative,even,arrowdown,1,1800
20,0,71,cue,12,6,6,intermixed,random,large,color,#2b5bee,negative,even,NA,NA,NA
20,0,71,judge,12,6,6,intermixed,random,large,color,NA,negative,even,arrowdown,1,1488
20,0,72,cue,8,2,6,intermixed,random,large,color,#e713b2,negative,even,NA,NA,NA
20,0,72,judge,8,2,6,intermixed,random,large,color,NA,negative,even,arrowup,1,1277
20,0,73,cue,8,6,2,intermixed,random,large,color,#e713b2,negative,even,NA,NA,NA
20,0,73,judge,8,6,2,intermixed,random,large,color,NA,negative,even,arrowup,1,1619
20,0,74,cue,4,2,2,intermixed,random,large,color,#0eaaaa,negative,even,NA,NA,NA
20,0,74,judge,4,2,2,intermixed,random,large,color,NA,negative,even,arrowdown,1,1176
20,0,75,cue,10,6,4,intermixed,random,large,color,#0eaaaa,negative,even,NA,NA,NA
20,0,75,judge,10,6,4,intermixed,random,large,color,NA,negative,even,arrowdown,1,3073
20,0,76,cue,6,4,2,intermixed,random,large,color,#ecb718,negative,even,NA,NA,NA
20,0,76,judge,6,4,2,intermixed,random,large,color,NA,negative,even,arrowdown,1,1231
20,0,77,cue,10,4,6,intermixed,random,large,color,#52970c,negative,even,NA,NA,NA
20,0,77,judge,10,4,6,intermixed,random,large,color,NA,negative,even,arrowup,1,2552
20,0,78,cue,6,4,2,intermixed,random,large,color,#e21212,negative,even,NA,NA,NA
20,0,78,judge,6,4,2,intermixed,random,large,color,NA,negative,even,arrowup,1,2392
20,0,79,cue,8,2,6,intermixed,random,large,color,#52970c,negative,even,NA,NA,NA
20,0,79,judge,8,2,6,intermixed,random,large,color,NA,negative,even,arrowup,1,1148
20,0,80,cue,8,6,2,intermixed,random,large,color,#e713b2,negative,even,NA,NA,NA
20,0,80,judge,8,6,2,intermixed,random,large,color,NA,negative,even,arrowup,1,2379
20,0,81,cue,8,2,6,intermixed,random,large,color,#660fbd,negative,even,NA,NA,NA
20,0,81,judge,8,2,6,intermixed,random,large,color,NA,negative,even,arrowdown,1,1008
20,0,82,cue,4,2,2,intermixed,random,large,color,#e713b2,negative,even,NA,NA,NA
20,0,82,judge,4,2,2,intermixed,random,large,color,NA,negative,even,arrowup,1,1179
20,0,83,cue,12,6,6,intermixed,random,large,color,#660fbd,negative,even,NA,NA,NA
20,0,83,judge,12,6,6,intermixed,random,large,color,NA,negative,even,arrowup,1,887
20,0,84,cue,8,4,4,intermixed,random,large,color,#2b5bee,negative,even,NA,NA,NA
20,0,84,judge,8,4,4,intermixed,random,large,color,NA,negative,even,arrowdown,1,1935
20,0,85,cue,10,4,6,intermixed,random,large,color,#660fbd,negative,even,NA,NA,NA
20,0,85,judge,10,4,6,intermixed,random,large,color,NA,negative,even,arrowup,1,2385
20,0,86,cue,6,4,2,intermixed,random,large,color,#e21212,negative,even,NA,NA,NA
20,0,86,judge,6,4,2,intermixed,random,large,color,NA,negative,even,arrowdown,1,1288
20,0,87,cue,10,4,6,intermixed,random,large,color,#e21212,negative,even,NA,NA,NA
20,0,87,judge,10,4,6,intermixed,random,large,color,NA,negative,even,arrowup,1,1914
20,0,88,cue,10,6,4,intermixed,random,large,color,#e21212,negative,even,NA,NA,NA
20,0,88,judge,10,6,4,intermixed,random,large,color,NA,negative,even,arrowup,1,1469
20,0,89,cue,8,4,4,intermixed,random,large,color,#0eaaaa,negative,even,NA,NA,NA
20,0,89,judge,8,4,4,intermixed,random,large,color,NA,negative,even,arrowup,1,2211
20,0,90,cue,12,6,6,intermixed,random,large,color,#e713b2,negative,even,NA,NA,NA
20,0,90,judge,12,6,6,intermixed,random,large,color,NA,negative,even,arrowdown,1,2274
20,0,91,cue,4,2,2,intermixed,random,large,color,#ecb718,negative,even,NA,NA,NA
20,0,91,judge,4,2,2,intermixed,random,large,color,NA,negative,even,arrowdown,1,1226
20,0,92,cue,6,4,2,intermixed,random,large,color,#660fbd,negative,even,NA,NA,NA
20,0,92,judge,6,4,2,intermixed,random,large,color,NA,negative,even,arrowdown,1,1797
20,0,93,cue,6,2,4,intermixed,random,large,color,#0eaaaa,negative,even,NA,NA,NA
20,0,93,judge,6,2,4,intermixed,random,large,color,NA,negative,even,arrowup,1,1676
20,0,94,cue,12,6,6,intermixed,random,large,color,#e713b2,negative,even,NA,NA,NA
20,0,94,judge,12,6,6,intermixed,random,large,color,NA,negative,even,arrowdown,1,1139
20,0,95,cue,10,4,6,intermixed,random,large,color,#e21212,negative,even,NA,NA,NA
20,0,95,judge,10,4,6,intermixed,random,large,color,NA,negative,even,arrowup,1,1327
20,0,96,cue,10,6,4,intermixed,random,large,color,#660fbd,negative,even,NA,NA,NA
20,0,96,judge,10,6,4,intermixed,random,large,color,NA,negative,even,arrowup,1,1788
20,0,97,cue,12,6,6,intermixed,random,large,color,#e21212,negative,even,NA,NA,NA
20,0,97,judge,12,6,6,intermixed,random,large,color,NA,negative,even,arrowup,1,2737
20,0,98,cue,6,2,4,intermixed,random,large,color,#e21212,negative,even,NA,NA,NA
20,0,98,judge,6,2,4,intermixed,random,large,color,NA,negative,even,arrowdown,1,1178
20,0,99,cue,4,2,2,intermixed,random,large,color,#660fbd,negative,even,NA,NA,NA
20,0,99,judge,4,2,2,intermixed,random,large,color,NA,negative,even,arrowdown,1,1276
20,0,100,cue,6,2,4,intermixed,random,large,color,#ecb718,negative,even,NA,NA,NA
20,0,100,judge,6,2,4,intermixed,random,large,color,NA,negative,even,arrowup,1,1304
20,0,101,cue,12,6,6,intermixed,random,large,color,#ecb718,negative,even,NA,NA,NA
20,0,101,judge,12,6,6,intermixed,random,large,color,NA,negative,even,arrowup,1,2167
20,0,102,cue,6,4,2,intermixed,random,large,color,#0eaaaa,negative,even,NA,NA,NA
20,0,102,judge,6,4,2,intermixed,random,large,color,NA,negative,even,arrowdown,1,2418
20,0,103,cue,6,4,2,intermixed,random,large,color,#660fbd,negative,even,NA,NA,NA
20,0,103,judge,6,4,2,intermixed,random,large,color,NA,negative,even,arrowup,1,1315
20,0,104,cue,8,2,6,intermixed,random,large,color,#ecb718,negative,even,NA,NA,NA
20,0,104,judge,8,2,6,intermixed,random,large,color,NA,negative,even,arrowdown,1,1311
20,0,105,cue,6,4,2,intermixed,random,large,color,#0eaaaa,negative,even,NA,NA,NA
20,0,105,judge,6,4,2,intermixed,random,large,color,NA,negative,even,arrowup,1,1064
20,0,106,cue,6,4,2,intermixed,random,large,color,#0eaaaa,negative,even,NA,NA,NA
20,0,106,judge,6,4,2,intermixed,random,large,color,NA,negative,even,arrowdown,1,1451
20,0,107,cue,8,6,2,intermixed,random,large,color,#52970c,negative,even,NA,NA,NA
20,0,107,judge,8,6,2,intermixed,random,large,color,NA,negative,even,arrowup,1,2185
20,0,108,cue,8,6,2,intermixed,random,large,color,#ecb718,negative,even,NA,NA,NA
20,0,108,judge,8,6,2,intermixed,random,large,color,NA,negative,even,arrowdown,1,1085
20,0,109,cue,10,6,4,intermixed,random,large,color,#e713b2,negative,even,NA,NA,NA
20,0,109,judge,10,6,4,intermixed,random,large,color,NA,negative,even,arrowup,1,1204
20,0,110,cue,8,6,2,intermixed,random,large,color,#e713b2,negative,even,NA,NA,NA
20,0,110,judge,8,6,2,intermixed,random,large,color,NA,negative,even,arrowup,1,2399
20,0,111,cue,6,2,4,intermixed,random,large,color,#e21212,negative,even,NA,NA,NA
20,0,111,judge,6,2,4,intermixed,random,large,color,NA,negative,even,arrowup,1,1500
20,0,112,cue,12,6,6,intermixed,random,large,color,#52970c,negative,even,NA,NA,NA
20,0,112,judge,12,6,6,intermixed,random,large,color,NA,negative,even,arrowdown,1,1338
20,0,113,cue,8,6,2,intermixed,random,large,color,#52970c,negative,even,NA,NA,NA
20,0,113,judge,8,6,2,intermixed,random,large,color,NA,negative,even,arrowup,1,1974
20,0,114,cue,6,2,4,intermixed,random,large,color,#e21212,negative,even,NA,NA,NA
20,0,114,judge,6,2,4,intermixed,random,large,color,NA,negative,even,arrowup,1,1015
20,0,115,cue,4,2,2,intermixed,random,large,color,#ecb718,negative,even,NA,NA,NA
20,0,115,judge,4,2,2,intermixed,random,large,color,NA,negative,even,arrowdown,1,975
20,0,116,cue,12,6,6,intermixed,random,large,color,#2b5bee,negative,even,NA,NA,NA
20,0,116,judge,12,6,6,intermixed,random,large,color,NA,negative,even,arrowup,1,1262
20,0,117,cue,10,6,4,intermixed,random,large,color,#52970c,negative,even,NA,NA,NA
20,0,117,judge,10,6,4,intermixed,random,large,color,NA,negative,even,arrowdown,1,1281
20,0,118,cue,8,4,4,intermixed,random,large,color,#e21212,negative,even,NA,NA,NA
20,0,118,judge,8,4,4,intermixed,random,large,color,NA,negative,even,arrowup,1,1465
20,0,119,cue,8,2,6,intermixed,random,large,color,#2b5bee,negative,even,NA,NA,NA
20,0,119,judge,8,2,6,intermixed,random,large,color,NA,negative,even,arrowdown,1,981
20,0,120,cue,8,4,4,intermixed,random,large,color,#0eaaaa,negative,even,NA,NA,NA
20,0,120,judge,8,4,4,intermixed,random,large,color,NA,negative,even,arrowup,1,1610
20,0,121,cue,8,6,2,intermixed,random,large,color,#ecb718,negative,even,NA,NA,NA
20,0,121,judge,8,6,2,intermixed,random,large,color,NA,negative,even,arrowup,1,1755
20,0,122,cue,6,2,4,intermixed,random,large,color,#2b5bee,negative,even,NA,NA,NA
20,0,122,judge,6,2,4,intermixed,random,large,color,NA,negative,even,arrowup,1,1427
20,0,123,cue,10,6,4,intermixed,random,large,color,#660fbd,negative,even,NA,NA,NA
20,0,123,judge,10,6,4,intermixed,random,large,color,NA,negative,even,arrowdown,1,1372
20,0,124,cue,6,4,2,intermixed,random,large,color,#2b5bee,negative,even,NA,NA,NA
20,0,124,judge,6,4,2,intermixed,random,large,color,NA,negative,even,arrowup,1,872
20,0,125,cue,8,6,2,intermixed,random,large,color,#e21212,negative,even,NA,NA,NA
20,0,125,judge,8,6,2,intermixed,random,large,color,NA,negative,even,arrowdown,1,1820
20,1,0,cue,10,4,6,intermixed,random,large,color,#52970c,neutral,even,NA,NA,NA
20,1,0,judge,10,4,6,intermixed,random,large,color,NA,neutral,even,arrowdown,1,4073
20,1,1,cue,10,4,6,intermixed,random,large,color,#660fbd,neutral,even,NA,NA,NA
20,1,1,judge,10,4,6,intermixed,random,large,color,NA,neutral,even,arrowdown,1,3887
20,1,2,cue,6,2,4,intermixed,random,large,color,#ecb718,neutral,even,NA,NA,NA
20,1,2,judge,6,2,4,intermixed,random,large,color,NA,neutral,even,arrowup,1,1017
20,1,3,cue,8,2,6,intermixed,random,large,color,#ecb718,neutral,even,NA,NA,NA
20,1,3,judge,8,2,6,intermixed,random,large,color,NA,neutral,even,arrowup,1,2733
20,1,4,cue,10,6,4,intermixed,random,large,color,#e713b2,neutral,even,NA,NA,NA
20,1,4,judge,10,6,4,intermixed,random,large,color,NA,neutral,even,arrowdown,1,1918
20,1,5,cue,8,4,4,intermixed,random,large,color,#52970c,neutral,even,NA,NA,NA
20,1,5,judge,8,4,4,intermixed,random,large,color,NA,neutral,even,arrowdown,1,1490
20,1,6,cue,4,2,2,intermixed,random,large,color,#0eaaaa,neutral,even,NA,NA,NA
20,1,6,judge,4,2,2,intermixed,random,large,color,NA,neutral,even,arrowup,1,1121
20,1,7,cue,8,6,2,intermixed,random,large,color,#e713b2,neutral,even,NA,NA,NA
20,1,7,judge,8,6,2,intermixed,random,large,color,NA,neutral,even,arrowdown,1,2290
20,1,8,cue,10,6,4,intermixed,random,large,color,#52970c,neutral,even,NA,NA,NA
20,1,8,judge,10,6,4,intermixed,random,large,color,NA,neutral,even,arrowup,1,2650
20,1,9,cue,12,6,6,intermixed,random,large,color,#0eaaaa,neutral,even,NA,NA,NA
20,1,9,judge,12,6,6,intermixed,random,large,color,NA,neutral,even,arrowdown,1,2817
20,1,10,cue,6,4,2,intermixed,random,large,color,#e21212,neutral,even,NA,NA,NA
20,1,10,judge,6,4,2,intermixed,random,large,color,NA,neutral,even,arrowdown,1,1427
20,1,11,cue,12,6,6,intermixed,random,large,color,#660fbd,neutral,even,NA,NA,NA
20,1,11,judge,12,6,6,intermixed,random,large,color,NA,neutral,even,arrowup,1,1665
20,1,12,cue,8,4,4,intermixed,random,large,color,#e713b2,neutral,even,NA,NA,NA
20,1,12,judge,8,4,4,intermixed,random,large,color,NA,neutral,even,arrowup,1,2003
20,1,13,cue,10,4,6,intermixed,random,large,color,#660fbd,neutral,even,NA,NA,NA
20,1,13,judge,10,4,6,intermixed,random,large,color,NA,neutral,even,arrowdown,1,1867
20,1,14,cue,8,2,6,intermixed,random,large,color,#0eaaaa,neutral,even,NA,NA,NA
20,1,14,judge,8,2,6,intermixed,random,large,color,NA,neutral,even,arrowdown,1,3502
20,1,15,cue,6,2,4,intermixed,random,large,color,#ecb718,neutral,even,NA,NA,NA
20,1,15,judge,6,2,4,intermixed,random,large,color,NA,neutral,even,arrowdown,1,1298
20,1,16,cue,4,2,2,intermixed,random,large,color,#ecb718,neutral,even,NA,NA,NA
20,1,16,judge,4,2,2,intermixed,random,large,color,NA,neutral,even,arrowup,1,937
20,1,17,cue,10,6,4,intermixed,random,large,color,#e21212,neutral,even,NA,NA,NA
20,1,17,judge,10,6,4,intermixed,random,large,color,NA,neutral,even,arrowdown,1,3899
20,1,18,cue,4,2,2,intermixed,random,large,color,#52970c,neutral,even,NA,NA,NA
20,1,18,judge,4,2,2,intermixed,random,large,color,NA,neutral,even,arrowup,1,1183
20,1,19,cue,8,6,2,intermixed,random,large,color,#e713b2,neutral,even,NA,NA,NA
20,1,19,judge,8,6,2,intermixed,random,large,color,NA,neutral,even,arrowup,1,2388
20,1,20,cue,10,4,6,intermixed,random,large,color,#ecb718,neutral,even,NA,NA,NA
20,1,20,judge,10,4,6,intermixed,random,large,color,NA,neutral,even,arrowdown,1,961
20,1,21,cue,8,6,2,intermixed,random,large,color,#ecb718,neutral,even,NA,NA,NA
20,1,21,judge,8,6,2,intermixed,random,large,color,NA,neutral,even,arrowdown,1,3062
20,1,22,cue,8,6,2,intermixed,random,large,color,#0eaaaa,neutral,even,NA,NA,NA
20,1,22,judge,8,6,2,intermixed,random,large,color,NA,neutral,even,arrowup,1,1067
20,1,23,cue,8,4,4,intermixed,random,large,color,#0eaaaa,neutral,even,NA,NA,NA
20,1,23,judge,8,4,4,intermixed,random,large,color,NA,neutral,even,arrowup,1,3388
20,1,24,cue,8,6,2,intermixed,random,large,color,#0eaaaa,neutral,even,NA,NA,NA
20,1,24,judge,8,6,2,intermixed,random,large,color,NA,neutral,even,arrowup,1,2548
20,1,25,cue,8,6,2,intermixed,random,large,color,#e713b2,neutral,even,NA,NA,NA
20,1,25,judge,8,6,2,intermixed,random,large,color,NA,neutral,even,arrowup,1,4205
20,1,26,cue,12,6,6,intermixed,random,large,color,#0eaaaa,neutral,even,NA,NA,NA
20,1,26,judge,12,6,6,intermixed,random,large,color,NA,neutral,even,arrowup,1,3660
20,1,27,cue,8,6,2,intermixed,random,large,color,#660fbd,neutral,even,NA,NA,NA
20,1,27,judge,8,6,2,intermixed,random,large,color,NA,neutral,even,arrowup,1,3036
20,1,28,cue,8,4,4,intermixed,random,large,color,#ecb718,neutral,even,NA,NA,NA
20,1,28,judge,8,4,4,intermixed,random,large,color,NA,neutral,even,arrowdown,1,1347
20,1,29,cue,12,6,6,intermixed,random,large,color,#e21212,neutral,even,NA,NA,NA
20,1,29,judge,12,6,6,intermixed,random,large,color,NA,neutral,even,arrowup,1,4483
20,1,30,cue,8,2,6,intermixed,random,large,color,#e21212,neutral,even,NA,NA,NA
20,1,30,judge,8,2,6,intermixed,random,large,color,NA,neutral,even,arrowup,1,2381
20,1,31,cue,6,4,2,intermixed,random,large,color,#e713b2,neutral,even,NA,NA,NA
20,1,31,judge,6,4,2,intermixed,random,large,color,NA,neutral,even,arrowdown,1,2431
20,1,32,cue,4,2,2,intermixed,random,large,color,#ecb718,neutral,even,NA,NA,NA
20,1,32,judge,4,2,2,intermixed,random,large,color,NA,neutral,even,arrowdown,1,1725
20,1,33,cue,8,4,4,intermixed,random,large,color,#ecb718,neutral,even,NA,NA,NA
20,1,33,judge,8,4,4,intermixed,random,large,color,NA,neutral,even,arrowup,1,1248
20,1,34,cue,4,2,2,intermixed,random,large,color,#660fbd,neutral,even,NA,NA,NA
20,1,34,judge,4,2,2,intermixed,random,large,color,NA,neutral,even,arrowdown,1,1752
20,1,35,cue,10,4,6,intermixed,random,large,color,#ecb718,neutral,even,NA,NA,NA
20,1,35,judge,10,4,6,intermixed,random,large,color,NA,neutral,even,arrowup,1,1821
20,1,36,cue,4,2,2,intermixed,random,large,color,#2b5bee,neutral,even,NA,NA,NA
20,1,36,judge,4,2,2,intermixed,random,large,color,NA,neutral,even,arrowdown,1,1008
20,1,37,cue,6,2,4,intermixed,random,large,color,#0eaaaa,neutral,even,NA,NA,NA
20,1,37,judge,6,2,4,intermixed,random,large,color,NA,neutral,even,arrowdown,1,1021
20,1,38,cue,10,4,6,intermixed,random,large,color,#e21212,neutral,even,NA,NA,NA
20,1,38,judge,10,4,6,intermixed,random,large,color,NA,neutral,even,arrowup,1,2755
20,1,39,cue,10,4,6,intermixed,random,large,color,#e713b2,neutral,even,NA,NA,NA
20,1,39,judge,10,4,6,intermixed,random,large,color,NA,neutral,even,arrowdown,1,2926
20,1,40,cue,12,6,6,intermixed,random,large,color,#e713b2,neutral,even,NA,NA,NA
20,1,40,judge,12,6,6,intermixed,random,large,color,NA,neutral,even,arrowup,1,1577
20,1,41,cue,10,4,6,intermixed,random,large,color,#e713b2,neutral,even,NA,NA,NA
20,1,41,judge,10,4,6,intermixed,random,large,color,NA,neutral,even,arrowup,1,3620
20,1,42,cue,12,6,6,intermixed,random,large,color,#e21212,neutral,even,NA,NA,NA
20,1,42,judge,12,6,6,intermixed,random,large,color,NA,neutral,even,arrowdown,1,4267
20,1,43,cue,6,4,2,intermixed,random,large,color,#ecb718,neutral,even,NA,NA,NA
20,1,43,judge,6,4,2,intermixed,random,large,color,NA,neutral,even,arrowdown,1,1527
20,1,44,cue,12,6,6,intermixed,random,large,color,#2b5bee,neutral,even,NA,NA,NA
20,1,44,judge,12,6,6,intermixed,random,large,color,NA,neutral,even,arrowdown,1,2393
20,1,45,cue,10,4,6,intermixed,random,large,color,#ecb718,neutral,even,NA,NA,NA
20,1,45,judge,10,4,6,intermixed,random,large,color,NA,neutral,even,arrowup,1,3381
20,1,46,cue,6,2,4,intermixed,random,large,color,#ecb718,neutral,even,NA,NA,NA
20,1,46,judge,6,2,4,intermixed,random,large,color,NA,neutral,even,arrowup,1,1835
20,1,47,cue,8,2,6,intermixed,random,large,color,#52970c,neutral,even,NA,NA,NA
20,1,47,judge,8,2,6,intermixed,random,large,color,NA,neutral,even,arrowdown,1,2557
20,1,48,cue,6,4,2,intermixed,random,large,color,#2b5bee,neutral,even,NA,NA,NA
20,1,48,judge,6,4,2,intermixed,random,large,color,NA,neutral,even,arrowup,1,702
20,1,49,cue,4,2,2,intermixed,random,large,color,#e21212,neutral,even,NA,NA,NA
20,1,49,judge,4,2,2,intermixed,random,large,color,NA,neutral,even,arrowdown,1,1226
20,1,50,cue,8,6,2,intermixed,random,large,color,#2b5bee,neutral,even,NA,NA,NA
20,1,50,judge,8,6,2,intermixed,random,large,color,NA,neutral,even,arrowdown,1,961
20,1,51,cue,6,4,2,intermixed,random,large,color,#0eaaaa,neutral,even,NA,NA,NA
20,1,51,judge,6,4,2,intermixed,random,large,color,NA,neutral,even,arrowdown,1,1036
20,1,52,cue,10,4,6,intermixed,random,large,color,#e21212,neutral,even,NA,NA,NA
20,1,52,judge,10,4,6,intermixed,random,large,color,NA,neutral,even,arrowdown,1,3227
20,1,53,cue,10,6,4,intermixed,random,large,color,#e713b2,neutral,even,NA,NA,NA
20,1,53,judge,10,6,4,intermixed,random,large,color,NA,neutral,even,arrowdown,1,3317
20,1,54,cue,8,6,2,intermixed,random,large,color,#52970c,neutral,even,NA,NA,NA
20,1,54,judge,8,6,2,intermixed,random,large,color,NA,neutral,even,arrowdown,1,904
20,1,55,cue,12,6,6,intermixed,random,large,color,#e713b2,neutral,even,NA,NA,NA
20,1,55,judge,12,6,6,intermixed,random,large,color,NA,neutral,even,arrowup,1,1628
20,1,56,cue,4,2,2,intermixed,random,large,color,#0eaaaa,neutral,even,NA,NA,NA
20,1,56,judge,4,2,2,intermixed,random,large,color,NA,neutral,even,arrowdown,1,911
20,1,57,cue,8,4,4,intermixed,random,large,color,#52970c,neutral,even,NA,NA,NA
20,1,57,judge,8,4,4,intermixed,random,large,color,NA,neutral,even,arrowup,1,2320
20,1,58,cue,12,6,6,intermixed,random,large,color,#52970c,neutral,even,NA,NA,NA
20,1,58,judge,12,6,6,intermixed,random,large,color,NA,neutral,even,arrowup,1,3367
20,1,59,cue,8,2,6,intermixed,random,large,color,#e713b2,neutral,even,NA,NA,NA
20,1,59,judge,8,2,6,intermixed,random,large,color,NA,neutral,even,arrowup,1,2686
20,1,60,cue,6,4,2,intermixed,random,large,color,#e21212,neutral,even,NA,NA,NA
20,1,60,judge,6,4,2,intermixed,random,large,color,NA,neutral,even,arrowdown,1,1526
20,1,61,cue,8,2,6,intermixed,random,large,color,#52970c,neutral,even,NA,NA,NA
20,1,61,judge,8,2,6,intermixed,random,large,color,NA,neutral,even,arrowdown,1,921
20,1,62,cue,12,6,6,intermixed,random,large,color,#e21212,neutral,even,NA,NA,NA
20,1,62,judge,12,6,6,intermixed,random,large,color,NA,neutral,even,arrowdown,1,2339
20,1,63,cue,10,6,4,intermixed,random,large,color,#e21212,neutral,even,NA,NA,NA
20,1,63,judge,10,6,4,intermixed,random,large,color,NA,neutral,even,arrowdown,1,2353
20,1,64,cue,6,2,4,intermixed,random,large,color,#e713b2,neutral,even,NA,NA,NA
20,1,64,judge,6,2,4,intermixed,random,large,color,NA,neutral,even,arrowup,1,3911
20,1,65,cue,4,2,2,intermixed,random,large,color,#e713b2,neutral,even,NA,NA,NA
20,1,65,judge,4,2,2,intermixed,random,large,color,NA,neutral,even,arrowdown,1,1757
20,1,66,cue,8,4,4,intermixed,random,large,color,#e21212,neutral,even,NA,NA,NA
20,1,66,judge,8,4,4,intermixed,random,large,color,NA,neutral,even,arrowup,1,2353
20,1,67,cue,12,6,6,intermixed,random,large,color,#52970c,neutral,even,NA,NA,NA
20,1,67,judge,12,6,6,intermixed,random,large,color,NA,neutral,even,arrowdown,1,3157
20,1,68,cue,8,4,4,intermixed,random,large,color,#2b5bee,neutral,even,NA,NA,NA
20,1,68,judge,8,4,4,intermixed,random,large,color,NA,neutral,even,arrowdown,1,1472
20,1,69,cue,10,6,4,intermixed,random,large,color,#e713b2,neutral,even,NA,NA,NA
20,1,69,judge,10,6,4,intermixed,random,large,color,NA,neutral,even,arrowup,1,3858
20,1,70,cue,10,6,4,intermixed,random,large,color,#ecb718,neutral,even,NA,NA,NA
20,1,70,judge,10,6,4,intermixed,random,large,color,NA,neutral,even,arrowup,1,1293
20,1,71,cue,4,2,2,intermixed,random,large,color,#660fbd,neutral,even,NA,NA,NA
20,1,71,judge,4,2,2,intermixed,random,large,color,NA,neutral,even,arrowdown,1,1250
20,1,72,cue,8,4,4,intermixed,random,large,color,#e713b2,neutral,even,NA,NA,NA
20,1,72,judge,8,4,4,intermixed,random,large,color,NA,neutral,even,arrowup,1,776
20,1,73,cue,4,2,2,intermixed,random,large,color,#e713b2,neutral,even,NA,NA,NA
20,1,73,judge,4,2,2,intermixed,random,large,color,NA,neutral,even,arrowdown,1,1873
20,1,74,cue,8,2,6,intermixed,random,large,color,#e21212,neutral,even,NA,NA,NA
20,1,74,judge,8,2,6,intermixed,random,large,color,NA,neutral,even,arrowdown,1,3320
20,1,75,cue,8,4,4,intermixed,random,large,color,#0eaaaa,neutral,even,NA,NA,NA
20,1,75,judge,8,4,4,intermixed,random,large,color,NA,neutral,even,arrowup,1,1009
20,1,76,cue,8,2,6,intermixed,random,large,color,#e713b2,neutral,even,NA,NA,NA
20,1,76,judge,8,2,6,intermixed,random,large,color,NA,neutral,even,arrowdown,1,1649
20,1,77,cue,6,2,4,intermixed,random,large,color,#e21212,neutral,even,NA,NA,NA
20,1,77,judge,6,2,4,intermixed,random,large,color,NA,neutral,even,arrowup,1,2145
20,1,78,cue,6,2,4,intermixed,random,large,color,#ecb718,neutral,even,NA,NA,NA
20,1,78,judge,6,2,4,intermixed,random,large,color,NA,neutral,even,arrowup,1,1803
20,1,79,cue,8,4,4,intermixed,random,large,color,#e21212,neutral,even,NA,NA,NA
20,1,79,judge,8,4,4,intermixed,random,large,color,NA,neutral,even,arrowdown,1,2722
20,1,80,cue,12,6,6,intermixed,random,large,color,#0eaaaa,neutral,even,NA,NA,NA
20,1,80,judge,12,6,6,intermixed,random,large,color,NA,neutral,even,arrowup,1,1040
20,1,81,cue,12,6,6,intermixed,random,large,color,#ecb718,neutral,even,NA,NA,NA
20,1,81,judge,12,6,6,intermixed,random,large,color,NA,neutral,even,arrowup,1,3096
20,1,82,cue,8,2,6,intermixed,random,large,color,#e21212,neutral,even,NA,NA,NA
20,1,82,judge,8,2,6,intermixed,random,large,color,NA,neutral,even,arrowdown,1,1354
20,1,83,cue,6,4,2,intermixed,random,large,color,#e713b2,neutral,even,NA,NA,NA
20,1,83,judge,6,4,2,intermixed,random,large,color,NA,neutral,even,arrowdown,1,1204
20,1,84,cue,6,2,4,intermixed,random,large,color,#0eaaaa,neutral,even,NA,NA,NA
20,1,84,judge,6,2,4,intermixed,random,large,color,NA,neutral,even,arrowdown,1,1074
20,1,85,cue,8,2,6,intermixed,random,large,color,#e21212,neutral,even,NA,NA,NA
20,1,85,judge,8,2,6,intermixed,random,large,color,NA,neutral,even,arrowup,1,2836
20,1,86,cue,6,4,2,intermixed,random,large,color,#660fbd,neutral,even,NA,NA,NA
20,1,86,judge,6,4,2,intermixed,random,large,color,NA,neutral,even,arrowdown,1,1371
20,1,87,cue,10,4,6,intermixed,random,large,color,#ecb718,neutral,even,NA,NA,NA
20,1,87,judge,10,4,6,intermixed,random,large,color,NA,neutral,even,arrowup,1,1968
20,1,88,cue,8,6,2,intermixed,random,large,color,#0eaaaa,neutral,even,NA,NA,NA
20,1,88,judge,8,6,2,intermixed,random,large,color,NA,neutral,even,arrowdown,1,2382
20,1,89,cue,6,4,2,intermixed,random,large,color,#ecb718,neutral,even,NA,NA,NA
20,1,89,judge,6,4,2,intermixed,random,large,color,NA,neutral,even,arrowdown,1,2014
20,1,90,cue,6,4,2,intermixed,random,large,color,#660fbd,neutral,even,NA,NA,NA
20,1,90,judge,6,4,2,intermixed,random,large,color,NA,neutral,even,arrowup,1,895
20,1,91,cue,8,2,6,intermixed,random,large,color,#2b5bee,neutral,even,NA,NA,NA
20,1,91,judge,8,2,6,intermixed,random,large,color,NA,neutral,even,arrowdown,1,2623
20,1,92,cue,6,2,4,intermixed,random,large,color,#52970c,neutral,even,NA,NA,NA
20,1,92,judge,6,2,4,intermixed,random,large,color,NA,neutral,even,arrowdown,1,1468
20,1,93,cue,6,2,4,intermixed,random,large,color,#ecb718,neutral,even,NA,NA,NA
20,1,93,judge,6,2,4,intermixed,random,large,color,NA,neutral,even,arrowdown,1,793
20,1,94,cue,8,4,4,intermixed,random,large,color,#e713b2,neutral,even,NA,NA,NA
20,1,94,judge,8,4,4,intermixed,random,large,color,NA,neutral,even,arrowdown,1,1650
20,1,95,cue,6,2,4,intermixed,random,large,color,#ecb718,neutral,even,NA,NA,NA
20,1,95,judge,6,2,4,intermixed,random,large,color,NA,neutral,even,arrowup,1,1669
20,1,96,cue,10,4,6,intermixed,random,large,color,#e713b2,neutral,even,NA,NA,NA
20,1,96,judge,10,4,6,intermixed,random,large,color,NA,neutral,even,arrowup,1,3142
20,1,97,cue,10,6,4,intermixed,random,large,color,#52970c,neutral,even,NA,NA,NA
20,1,97,judge,10,6,4,intermixed,random,large,color,NA,neutral,even,arrowup,1,850
20,1,98,cue,8,2,6,intermixed,random,large,color,#e21212,neutral,even,NA,NA,NA
20,1,98,judge,8,2,6,intermixed,random,large,color,NA,neutral,even,arrowdown,1,2631
20,1,99,cue,6,2,4,intermixed,random,large,color,#0eaaaa,neutral,even,NA,NA,NA
20,1,99,judge,6,2,4,intermixed,random,large,color,NA,neutral,even,arrowup,1,967
20,1,100,cue,10,6,4,intermixed,random,large,color,#52970c,neutral,even,NA,NA,NA
20,1,100,judge,10,6,4,intermixed,random,large,color,NA,neutral,even,arrowup,1,2380
20,1,101,cue,8,2,6,intermixed,random,large,color,#0eaaaa,neutral,even,NA,NA,NA
20,1,101,judge,8,2,6,intermixed,random,large,color,NA,neutral,even,arrowdown,1,2309
20,1,102,cue,8,6,2,intermixed,random,large,color,#660fbd,neutral,even,NA,NA,NA
20,1,102,judge,8,6,2,intermixed,random,large,color,NA,neutral,even,arrowup,1,1912
20,1,103,cue,6,4,2,intermixed,random,large,color,#52970c,neutral,even,NA,NA,NA
20,1,103,judge,6,4,2,intermixed,random,large,color,NA,neutral,even,arrowdown,1,1686
20,1,104,cue,10,4,6,intermixed,random,large,color,#ecb718,neutral,even,NA,NA,NA
20,1,104,judge,10,4,6,intermixed,random,large,color,NA,neutral,even,arrowdown,1,2135
20,1,105,cue,12,6,6,intermixed,random,large,color,#2b5bee,neutral,even,NA,NA,NA
20,1,105,judge,12,6,6,intermixed,random,large,color,NA,neutral,even,arrowup,1,3997
20,1,106,cue,10,6,4,intermixed,random,large,color,#e713b2,neutral,even,NA,NA,NA
20,1,106,judge,10,6,4,intermixed,random,large,color,NA,neutral,even,arrowdown,1,1395
20,1,107,cue,8,2,6,intermixed,random,large,color,#660fbd,neutral,even,NA,NA,NA
20,1,107,judge,8,2,6,intermixed,random,large,color,NA,neutral,even,arrowdown,1,1867
20,1,108,cue,4,2,2,intermixed,random,large,color,#ecb718,neutral,even,NA,NA,NA
20,1,108,judge,4,2,2,intermixed,random,large,color,NA,neutral,even,arrowdown,1,1258
20,1,109,cue,6,2,4,intermixed,random,large,color,#660fbd,neutral,even,NA,NA,NA
20,1,109,judge,6,2,4,intermixed,random,large,color,NA,neutral,even,arrowdown,1,1360
20,1,110,cue,8,6,2,intermixed,random,large,color,#0eaaaa,neutral,even,NA,NA,NA
20,1,110,judge,8,6,2,intermixed,random,large,color,NA,neutral,even,arrowdown,1,2335
20,1,111,cue,10,6,4,intermixed,random,large,color,#660fbd,neutral,even,NA,NA,NA
20,1,111,judge,10,6,4,intermixed,random,large,color,NA,neutral,even,arrowdown,1,1365
20,1,112,cue,10,6,4,intermixed,random,large,color,#660fbd,neutral,even,NA,NA,NA
20,1,112,judge,10,6,4,intermixed,random,large,color,NA,neutral,even,arrowup,1,2742
20,1,113,cue,8,6,2,intermixed,random,large,color,#52970c,neutral,even,NA,NA,NA
20,1,113,judge,8,6,2,intermixed,random,large,color,NA,neutral,even,arrowdown,1,1314
20,1,114,cue,10,6,4,intermixed,random,large,color,#e713b2,neutral,even,NA,NA,NA
20,1,114,judge,10,6,4,intermixed,random,large,color,NA,neutral,even,arrowup,1,2183
20,1,115,cue,6,2,4,intermixed,random,large,color,#ecb718,neutral,even,NA,NA,NA
20,1,115,judge,6,2,4,intermixed,random,large,color,NA,neutral,even,arrowdown,1,1283
20,1,116,cue,8,4,4,intermixed,random,large,color,#2b5bee,neutral,even,NA,NA,NA
20,1,116,judge,8,4,4,intermixed,random,large,color,NA,neutral,even,arrowup,1,968
20,1,117,cue,8,6,2,intermixed,random,large,color,#2b5bee,neutral,even,NA,NA,NA
20,1,117,judge,8,6,2,intermixed,random,large,color,NA,neutral,even,arrowdown,1,910
20,1,118,cue,6,4,2,intermixed,random,large,color,#e21212,neutral,even,NA,NA,NA
20,1,118,judge,6,4,2,intermixed,random,large,color,NA,neutral,even,arrowdown,1,1743
20,1,119,cue,4,2,2,intermixed,random,large,color,#52970c,neutral,even,NA,NA,NA
20,1,119,judge,4,2,2,intermixed,random,large,color,NA,neutral,even,arrowup,1,1728
20,1,120,cue,8,4,4,intermixed,random,large,color,#e713b2,neutral,even,NA,NA,NA
20,1,120,judge,8,4,4,intermixed,random,large,color,NA,neutral,even,arrowup,1,1240
20,1,121,cue,4,2,2,intermixed,random,large,color,#660fbd,neutral,even,NA,NA,NA
20,1,121,judge,4,2,2,intermixed,random,large,color,NA,neutral,even,arrowdown,1,1399
20,1,122,cue,6,4,2,intermixed,random,large,color,#0eaaaa,neutral,even,NA,NA,NA
20,1,122,judge,6,4,2,intermixed,random,large,color,NA,neutral,even,arrowdown,1,1177
20,1,123,cue,10,6,4,intermixed,random,large,color,#52970c,neutral,even,NA,NA,NA
20,1,123,judge,10,6,4,intermixed,random,large,color,NA,neutral,even,arrowup,1,825
20,1,124,cue,6,4,2,intermixed,random,large,color,#e713b2,neutral,even,NA,NA,NA
20,1,124,judge,6,4,2,intermixed,random,large,color,NA,neutral,even,arrowdown,1,1163
20,1,125,cue,10,4,6,intermixed,random,large,color,#ecb718,neutral,even,NA,NA,NA
20,1,125,judge,10,4,6,intermixed,random,large,color,NA,neutral,even,arrowup,1,2202
20,2,0,cue,10,4,6,intermixed,random,large,color,#2b5bee,positive,even,NA,NA,NA
20,2,0,judge,10,4,6,intermixed,random,large,color,NA,positive,even,arrowup,1,1121
20,2,1,cue,6,4,2,intermixed,random,large,color,#2b5bee,positive,even,NA,NA,NA
20,2,1,judge,6,4,2,intermixed,random,large,color,NA,positive,even,arrowup,1,1868
20,2,2,cue,8,4,4,intermixed,random,large,color,#52970c,positive,even,NA,NA,NA
20,2,2,judge,8,4,4,intermixed,random,large,color,NA,positive,even,arrowdown,1,851
20,2,3,cue,6,4,2,intermixed,random,large,color,#0eaaaa,positive,even,NA,NA,NA
20,2,3,judge,6,4,2,intermixed,random,large,color,NA,positive,even,arrowdown,1,1232
20,2,4,cue,10,4,6,intermixed,random,large,color,#660fbd,positive,even,NA,NA,NA
20,2,4,judge,10,4,6,intermixed,random,large,color,NA,positive,even,arrowup,1,864
20,2,5,cue,8,6,2,intermixed,random,large,color,#e713b2,positive,even,NA,NA,NA
20,2,5,judge,8,6,2,intermixed,random,large,color,NA,positive,even,arrowdown,1,2117
20,2,6,cue,12,6,6,intermixed,random,large,color,#660fbd,positive,even,NA,NA,NA
20,2,6,judge,12,6,6,intermixed,random,large,color,NA,positive,even,arrowup,1,2102
20,2,7,cue,8,4,4,intermixed,random,large,color,#660fbd,positive,even,NA,NA,NA
20,2,7,judge,8,4,4,intermixed,random,large,color,NA,positive,even,arrowup,1,1529
20,2,8,cue,6,2,4,intermixed,random,large,color,#52970c,positive,even,NA,NA,NA
20,2,8,judge,6,2,4,intermixed,random,large,color,NA,positive,even,arrowdown,1,1057
20,2,9,cue,6,2,4,intermixed,random,large,color,#ecb718,positive,even,NA,NA,NA
20,2,9,judge,6,2,4,intermixed,random,large,color,NA,positive,even,arrowdown,1,1195
20,2,10,cue,10,6,4,intermixed,random,large,color,#0eaaaa,positive,even,NA,NA,NA
20,2,10,judge,10,6,4,intermixed,random,large,color,NA,positive,even,arrowdown,1,1995
20,2,11,cue,6,2,4,intermixed,random,large,color,#52970c,positive,even,NA,NA,NA
20,2,11,judge,6,2,4,intermixed,random,large,color,NA,positive,even,arrowup,1,849
20,2,12,cue,10,4,6,intermixed,random,large,color,#e21212,positive,even,NA,NA,NA
20,2,12,judge,10,4,6,intermixed,random,large,color,NA,positive,even,arrowdown,1,1530
20,2,13,cue,8,6,2,intermixed,random,large,color,#660fbd,positive,even,NA,NA,NA
20,2,13,judge,8,6,2,intermixed,random,large,color,NA,positive,even,arrowdown,1,1520
20,2,14,cue,6,4,2,intermixed,random,large,color,#e713b2,positive,even,NA,NA,NA
20,2,14,judge,6,4,2,intermixed,random,large,color,NA,positive,even,arrowdown,1,1709
20,2,15,cue,8,2,6,intermixed,random,large,color,#ecb718,positive,even,NA,NA,NA
20,2,15,judge,8,2,6,intermixed,random,large,color,NA,positive,even,arrowdown,1,808
20,2,16,cue,8,2,6,intermixed,random,large,color,#52970c,positive,even,NA,NA,NA
20,2,16,judge,8,2,6,intermixed,random,large,color,NA,positive,even,arrowup,1,1309
20,2,17,cue,6,2,4,intermixed,random,large,color,#e21212,positive,even,NA,NA,NA
20,2,17,judge,6,2,4,intermixed,random,large,color,NA,positive,even,arrowup,1,1038
20,2,18,cue,8,2,6,intermixed,random,large,color,#52970c,positive,even,NA,NA,NA
20,2,18,judge,8,2,6,intermixed,random,large,color,NA,positive,even,arrowdown,1,899
20,2,19,cue,6,4,2,intermixed,random,large,color,#2b5bee,positive,even,NA,NA,NA
20,2,19,judge,6,4,2,intermixed,random,large,color,NA,positive,even,arrowup,1,712
20,2,20,cue,8,2,6,intermixed,random,large,color,#e713b2,positive,even,NA,NA,NA
20,2,20,judge,8,2,6,intermixed,random,large,color,NA,positive,even,arrowup,1,745
20,2,21,cue,4,2,2,intermixed,random,large,color,#660fbd,positive,even,NA,NA,NA
20,2,21,judge,4,2,2,intermixed,random,large,color,NA,positive,even,arrowup,1,789
20,2,22,cue,6,2,4,intermixed,random,large,color,#0eaaaa,positive,even,NA,NA,NA
20,2,22,judge,6,2,4,intermixed,random,large,color,NA,positive,even,arrowup,1,889
20,2,23,cue,8,2,6,intermixed,random,large,color,#e713b2,positive,even,NA,NA,NA
20,2,23,judge,8,2,6,intermixed,random,large,color,NA,positive,even,arrowdown,1,935
20,2,24,cue,8,4,4,intermixed,random,large,color,#0eaaaa,positive,even,NA,NA,NA
20,2,24,judge,8,4,4,intermixed,random,large,color,NA,positive,even,arrowup,1,1124
20,2,25,cue,12,6,6,intermixed,random,large,color,#e713b2,positive,even,NA,NA,NA
20,2,25,judge,12,6,6,intermixed,random,large,color,NA,positive,even,arrowup,1,884
20,2,26,cue,8,4,4,intermixed,random,large,color,#e713b2,positive,even,NA,NA,NA
20,2,26,judge,8,4,4,intermixed,random,large,color,NA,positive,even,arrowdown,1,1430
20,2,27,cue,10,6,4,intermixed,random,large,color,#660fbd,positive,even,NA,NA,NA
20,2,27,judge,10,6,4,intermixed,random,large,color,NA,positive,even,arrowup,1,2584
20,2,28,cue,10,4,6,intermixed,random,large,color,#52970c,positive,even,NA,NA,NA
20,2,28,judge,10,4,6,intermixed,random,large,color,NA,positive,even,arrowdown,1,804
20,2,29,cue,8,6,2,intermixed,random,large,color,#2b5bee,positive,even,NA,NA,NA
20,2,29,judge,8,6,2,intermixed,random,large,color,NA,positive,even,arrowup,1,1043
20,2,30,cue,4,2,2,intermixed,random,large,color,#e21212,positive,even,NA,NA,NA
20,2,30,judge,4,2,2,intermixed,random,large,color,NA,positive,even,arrowdown,1,816
20,2,31,cue,12,6,6,intermixed,random,large,color,#e713b2,positive,even,NA,NA,NA
20,2,31,judge,12,6,6,intermixed,random,large,color,NA,positive,even,arrowup,1,1579
20,2,32,cue,8,4,4,intermixed,random,large,color,#e713b2,positive,even,NA,NA,NA
20,2,32,judge,8,4,4,intermixed,random,large,color,NA,positive,even,arrowdown,1,947
20,2,33,cue,4,2,2,intermixed,random,large,color,#0eaaaa,positive,even,NA,NA,NA
20,2,33,judge,4,2,2,intermixed,random,large,color,NA,positive,even,arrowdown,1,1274
20,2,34,cue,10,6,4,intermixed,random,large,color,#e21212,positive,even,NA,NA,NA
20,2,34,judge,10,6,4,intermixed,random,large,color,NA,positive,even,arrowdown,1,1242
20,2,35,cue,10,4,6,intermixed,random,large,color,#660fbd,positive,even,NA,NA,NA
20,2,35,judge,10,4,6,intermixed,random,large,color,NA,positive,even,arrowdown,1,922
20,2,36,cue,6,2,4,intermixed,random,large,color,#e21212,positive,even,NA,NA,NA
20,2,36,judge,6,2,4,intermixed,random,large,color,NA,positive,even,arrowup,1,1181
20,2,37,cue,8,6,2,intermixed,random,large,color,#2b5bee,positive,even,NA,NA,NA
20,2,37,judge,8,6,2,intermixed,random,large,color,NA,positive,even,arrowup,1,1526
20,2,38,cue,8,6,2,intermixed,random,large,color,#660fbd,positive,even,NA,NA,NA
20,2,38,judge,8,6,2,intermixed,random,large,color,NA,positive,even,arrowup,1,1251
20,2,39,cue,8,4,4,intermixed,random,large,color,#e21212,positive,even,NA,NA,NA
20,2,39,judge,8,4,4,intermixed,random,large,color,NA,positive,even,arrowup,1,1235
20,2,40,cue,10,6,4,intermixed,random,large,color,#ecb718,positive,even,NA,NA,NA
20,2,40,judge,10,6,4,intermixed,random,large,color,NA,positive,even,arrowup,1,2297
20,2,41,cue,8,2,6,intermixed,random,large,color,#e713b2,positive,even,NA,NA,NA
20,2,41,judge,8,2,6,intermixed,random,large,color,NA,positive,even,arrowdown,1,2085
20,2,42,cue,10,6,4,intermixed,random,large,color,#e21212,positive,even,NA,NA,NA
20,2,42,judge,10,6,4,intermixed,random,large,color,NA,positive,even,arrowup,1,1071
20,2,43,cue,4,2,2,intermixed,random,large,color,#e21212,positive,even,NA,NA,NA
20,2,43,judge,4,2,2,intermixed,random,large,color,NA,positive,even,arrowdown,1,899
20,2,44,cue,12,6,6,intermixed,random,large,color,#e21212,positive,even,NA,NA,NA
20,2,44,judge,12,6,6,intermixed,random,large,color,NA,positive,even,arrowdown,1,1984
20,2,45,cue,8,6,2,intermixed,random,large,color,#52970c,positive,even,NA,NA,NA
20,2,45,judge,8,6,2,intermixed,random,large,color,NA,positive,even,arrowup,1,1736
20,2,46,cue,10,4,6,intermixed,random,large,color,#0eaaaa,positive,even,NA,NA,NA
20,2,46,judge,10,4,6,intermixed,random,large,color,NA,positive,even,arrowup,1,1862
20,2,47,cue,8,4,4,intermixed,random,large,color,#660fbd,positive,even,NA,NA,NA
20,2,47,judge,8,4,4,intermixed,random,large,color,NA,positive,even,arrowdown,1,1924
20,2,48,cue,6,2,4,intermixed,random,large,color,#ecb718,positive,even,NA,NA,NA
20,2,48,judge,6,2,4,intermixed,random,large,color,NA,positive,even,arrowdown,1,938
20,2,49,cue,8,4,4,intermixed,random,large,color,#0eaaaa,positive,even,NA,NA,NA
20,2,49,judge,8,4,4,intermixed,random,large,color,NA,positive,even,arrowdown,1,1398
20,2,50,cue,8,2,6,intermixed,random,large,color,#2b5bee,positive,even,NA,NA,NA
20,2,50,judge,8,2,6,intermixed,random,large,color,NA,positive,even,arrowup,1,4549
20,2,51,cue,6,2,4,intermixed,random,large,color,#2b5bee,positive,even,NA,NA,NA
20,2,51,judge,6,2,4,intermixed,random,large,color,NA,positive,even,arrowdown,1,1171
20,2,52,cue,6,4,2,intermixed,random,large,color,#e713b2,positive,even,NA,NA,NA
20,2,52,judge,6,4,2,intermixed,random,large,color,NA,positive,even,arrowup,1,1529
20,2,53,cue,4,2,2,intermixed,random,large,color,#e713b2,positive,even,NA,NA,NA
20,2,53,judge,4,2,2,intermixed,random,large,color,NA,positive,even,arrowdown,1,1254
20,2,54,cue,10,4,6,intermixed,random,large,color,#660fbd,positive,even,NA,NA,NA
20,2,54,judge,10,4,6,intermixed,random,large,color,NA,positive,even,arrowdown,1,1531
20,2,55,cue,4,2,2,intermixed,random,large,color,#0eaaaa,positive,even,NA,NA,NA
20,2,55,judge,4,2,2,intermixed,random,large,color,NA,positive,even,arrowup,1,1193
20,2,56,cue,8,2,6,intermixed,random,large,color,#2b5bee,positive,even,NA,NA,NA
20,2,56,judge,8,2,6,intermixed,random,large,color,NA,positive,even,arrowup,1,1268
20,2,57,cue,4,2,2,intermixed,random,large,color,#2b5bee,positive,even,NA,NA,NA
20,2,57,judge,4,2,2,intermixed,random,large,color,NA,positive,even,arrowdown,1,915
20,2,58,cue,10,6,4,intermixed,random,large,color,#2b5bee,positive,even,NA,NA,NA
20,2,58,judge,10,6,4,intermixed,random,large,color,NA,positive,even,arrowdown,1,1142
20,2,59,cue,8,6,2,intermixed,random,large,color,#e713b2,positive,even,NA,NA,NA
20,2,59,judge,8,6,2,intermixed,random,large,color,NA,positive,even,arrowdown,1,813
20,2,60,cue,6,4,2,intermixed,random,large,color,#660fbd,positive,even,NA,NA,NA
20,2,60,judge,6,4,2,intermixed,random,large,color,NA,positive,even,arrowup,1,1220
20,2,61,cue,8,6,2,intermixed,random,large,color,#2b5bee,positive,even,NA,NA,NA
20,2,61,judge,8,6,2,intermixed,random,large,color,NA,positive,even,arrowdown,1,2013
20,2,62,cue,10,4,6,intermixed,random,large,color,#ecb718,positive,even,NA,NA,NA
20,2,62,judge,10,4,6,intermixed,random,large,color,NA,positive,even,arrowdown,1,1834
20,2,63,cue,6,4,2,intermixed,random,large,color,#ecb718,positive,even,NA,NA,NA
20,2,63,judge,6,4,2,intermixed,random,large,color,NA,positive,even,arrowdown,1,2230
20,2,64,cue,10,6,4,intermixed,random,large,color,#e21212,positive,even,NA,NA,NA
20,2,64,judge,10,6,4,intermixed,random,large,color,NA,positive,even,arrowdown,1,2381
20,2,65,cue,8,2,6,intermixed,random,large,color,#ecb718,positive,even,NA,NA,NA
20,2,65,judge,8,2,6,intermixed,random,large,color,NA,positive,even,arrowdown,1,987
20,2,66,cue,8,4,4,intermixed,random,large,color,#e21212,positive,even,NA,NA,NA
20,2,66,judge,8,4,4,intermixed,random,large,color,NA,positive,even,arrowup,1,1528
20,2,67,cue,6,2,4,intermixed,random,large,color,#ecb718,positive,even,NA,NA,NA
20,2,67,judge,6,2,4,intermixed,random,large,color,NA,positive,even,arrowup,1,1096
20,2,68,cue,12,6,6,intermixed,random,large,color,#e21212,positive,even,NA,NA,NA
20,2,68,judge,12,6,6,intermixed,random,large,color,NA,positive,even,arrowup,1,2197
20,2,69,cue,12,6,6,intermixed,random,large,color,#e21212,positive,even,NA,NA,NA
20,2,69,judge,12,6,6,intermixed,random,large,color,NA,positive,even,arrowdown,1,986
20,2,70,cue,6,2,4,intermixed,random,large,color,#e713b2,positive,even,NA,NA,NA
20,2,70,judge,6,2,4,intermixed,random,large,color,NA,positive,even,arrowup,1,1105
20,2,71,cue,8,2,6,intermixed,random,large,color,#ecb718,positive,even,NA,NA,NA
20,2,71,judge,8,2,6,intermixed,random,large,color,NA,positive,even,arrowup,1,752
20,2,72,cue,6,2,4,intermixed,random,large,color,#0eaaaa,positive,even,NA,NA,NA
20,2,72,judge,6,2,4,intermixed,random,large,color,NA,positive,even,arrowup,1,987
20,2,73,cue,8,6,2,intermixed,random,large,color,#2b5bee,positive,even,NA,NA,NA
20,2,73,judge,8,6,2,intermixed,random,large,color,NA,positive,even,arrowdown,1,962
20,2,74,cue,8,6,2,intermixed,random,large,color,#ecb718,positive,even,NA,NA,NA
20,2,74,judge,8,6,2,intermixed,random,large,color,NA,positive,even,arrowup,1,1503
20,2,75,cue,10,6,4,intermixed,random,large,color,#0eaaaa,positive,even,NA,NA,NA
20,2,75,judge,10,6,4,intermixed,random,large,color,NA,positive,even,arrowdown,1,1000
20,2,76,cue,10,4,6,intermixed,random,large,color,#52970c,positive,even,NA,NA,NA
20,2,76,judge,10,4,6,intermixed,random,large,color,NA,positive,even,arrowup,1,1057
20,2,77,cue,12,6,6,intermixed,random,large,color,#e713b2,positive,even,NA,NA,NA
20,2,77,judge,12,6,6,intermixed,random,large,color,NA,positive,even,arrowup,1,2921
20,2,78,cue,4,2,2,intermixed,random,large,color,#e713b2,positive,even,NA,NA,NA
20,2,78,judge,4,2,2,intermixed,random,large,color,NA,positive,even,arrowup,1,776
20,2,79,cue,6,4,2,intermixed,random,large,color,#660fbd,positive,even,NA,NA,NA
20,2,79,judge,6,4,2,intermixed,random,large,color,NA,positive,even,arrowdown,1,714
20,2,80,cue,8,4,4,intermixed,random,large,color,#e713b2,positive,even,NA,NA,NA
20,2,80,judge,8,4,4,intermixed,random,large,color,NA,positive,even,arrowdown,1,1128
20,2,81,cue,10,6,4,intermixed,random,large,color,#ecb718,positive,even,NA,NA,NA
20,2,81,judge,10,6,4,intermixed,random,large,color,NA,positive,even,arrowup,1,2307
20,2,82,cue,10,4,6,intermixed,random,large,color,#660fbd,positive,even,NA,NA,NA
20,2,82,judge,10,4,6,intermixed,random,large,color,NA,positive,even,arrowdown,1,1342
20,2,83,cue,4,2,2,intermixed,random,large,color,#52970c,positive,even,NA,NA,NA
20,2,83,judge,4,2,2,intermixed,random,large,color,NA,positive,even,arrowup,1,1042
20,2,84,cue,4,2,2,intermixed,random,large,color,#ecb718,positive,even,NA,NA,NA
20,2,84,judge,4,2,2,intermixed,random,large,color,NA,positive,even,arrowup,1,1380
20,2,85,cue,8,2,6,intermixed,random,large,color,#e21212,positive,even,NA,NA,NA
20,2,85,judge,8,2,6,intermixed,random,large,color,NA,positive,even,arrowup,1,1321
20,2,86,cue,6,4,2,intermixed,random,large,color,#e713b2,positive,even,NA,NA,NA
20,2,86,judge,6,4,2,intermixed,random,large,color,NA,positive,even,arrowup,1,2163
20,2,87,cue,6,2,4,intermixed,random,large,color,#660fbd,positive,even,NA,NA,NA
20,2,87,judge,6,2,4,intermixed,random,large,color,NA,positive,even,arrowdown,1,1201
20,2,88,cue,8,4,4,intermixed,random,large,color,#e21212,positive,even,NA,NA,NA
20,2,88,judge,8,4,4,intermixed,random,large,color,NA,positive,even,arrowup,1,2841
20,2,89,cue,12,6,6,intermixed,random,large,color,#e713b2,positive,even,NA,NA,NA
20,2,89,judge,12,6,6,intermixed,random,large,color,NA,positive,even,arrowup,1,1842
20,2,90,cue,12,6,6,intermixed,random,large,color,#52970c,positive,even,NA,NA,NA
20,2,90,judge,12,6,6,intermixed,random,large,color,NA,positive,even,arrowup,1,2852
20,2,91,cue,12,6,6,intermixed,random,large,color,#e21212,positive,even,NA,NA,NA
20,2,91,judge,12,6,6,intermixed,random,large,color,NA,positive,even,arrowup,1,1764
20,2,92,cue,6,4,2,intermixed,random,large,color,#ecb718,positive,even,NA,NA,NA
20,2,92,judge,6,4,2,intermixed,random,large,color,NA,positive,even,arrowdown,1,2109
20,2,93,cue,8,4,4,intermixed,random,large,color,#e713b2,positive,even,NA,NA,NA
20,2,93,judge,8,4,4,intermixed,random,large,color,NA,positive,even,arrowup,1,1592
20,2,94,cue,10,6,4,intermixed,random,large,color,#e21212,positive,even,NA,NA,NA
20,2,94,judge,10,6,4,intermixed,random,large,color,NA,positive,even,arrowdown,1,1304
20,2,95,cue,12,6,6,intermixed,random,large,color,#0eaaaa,positive,even,NA,NA,NA
20,2,95,judge,12,6,6,intermixed,random,large,color,NA,positive,even,arrowdown,1,2289
20,2,96,cue,6,2,4,intermixed,random,large,color,#0eaaaa,positive,even,NA,NA,NA
20,2,96,judge,6,2,4,intermixed,random,large,color,NA,positive,even,arrowup,1,831
20,2,97,cue,8,4,4,intermixed,random,large,color,#e713b2,positive,even,NA,NA,NA
20,2,97,judge,8,4,4,intermixed,random,large,color,NA,positive,even,arrowdown,1,1312
20,2,98,cue,8,2,6,intermixed,random,large,color,#e713b2,positive,even,NA,NA,NA
20,2,98,judge,8,2,6,intermixed,random,large,color,NA,positive,even,arrowup,1,645
20,2,99,cue,8,6,2,intermixed,random,large,color,#2b5bee,positive,even,NA,NA,NA
20,2,99,judge,8,6,2,intermixed,random,large,color,NA,positive,even,arrowdown,1,2458
20,2,100,cue,8,6,2,intermixed,random,large,color,#2b5bee,positive,even,NA,NA,NA
20,2,100,judge,8,6,2,intermixed,random,large,color,NA,positive,even,arrowup,1,1265
20,2,101,cue,10,4,6,intermixed,random,large,color,#ecb718,positive,even,NA,NA,NA
20,2,101,judge,10,4,6,intermixed,random,large,color,NA,positive,even,arrowup,1,1528
20,2,102,cue,4,2,2,intermixed,random,large,color,#e713b2,positive,even,NA,NA,NA
20,2,102,judge,4,2,2,intermixed,random,large,color,NA,positive,even,arrowdown,1,773
20,2,103,cue,10,6,4,intermixed,random,large,color,#e21212,positive,even,NA,NA,NA
20,2,103,judge,10,6,4,intermixed,random,large,color,NA,positive,even,arrowup,1,1157
20,2,104,cue,6,4,2,intermixed,random,large,color,#660fbd,positive,even,NA,NA,NA
20,2,104,judge,6,4,2,intermixed,random,large,color,NA,positive,even,arrowup,1,1227
20,2,105,cue,10,4,6,intermixed,random,large,color,#660fbd,positive,even,NA,NA,NA
20,2,105,judge,10,4,6,intermixed,random,large,color,NA,positive,even,arrowup,1,831
20,2,106,cue,6,4,2,intermixed,random,large,color,#52970c,positive,even,NA,NA,NA
20,2,106,judge,6,4,2,intermixed,random,large,color,NA,positive,even,arrowup,1,966
20,2,107,cue,4,2,2,intermixed,random,large,color,#660fbd,positive,even,NA,NA,NA
20,2,107,judge,4,2,2,intermixed,random,large,color,NA,positive,even,arrowup,1,1270
20,2,108,cue,10,6,4,intermixed,random,large,color,#52970c,positive,even,NA,NA,NA
20,2,108,judge,10,6,4,intermixed,random,large,color,NA,positive,even,arrowdown,1,1727
20,2,109,cue,12,6,6,intermixed,random,large,color,#e713b2,positive,even,NA,NA,NA
20,2,109,judge,12,6,6,intermixed,random,large,color,NA,positive,even,arrowup,1,941
20,2,110,cue,6,4,2,intermixed,random,large,color,#660fbd,positive,even,NA,NA,NA
20,2,110,judge,6,4,2,intermixed,random,large,color,NA,positive,even,arrowup,1,1092
20,2,111,cue,10,4,6,intermixed,random,large,color,#660fbd,positive,even,NA,NA,NA
20,2,111,judge,10,4,6,intermixed,random,large,color,NA,positive,even,arrowdown,1,1403
20,2,112,cue,4,2,2,intermixed,random,large,color,#52970c,positive,even,NA,NA,NA
20,2,112,judge,4,2,2,intermixed,random,large,color,NA,positive,even,arrowdown,1,743
20,2,113,cue,8,6,2,intermixed,random,large,color,#0eaaaa,positive,even,NA,NA,NA
20,2,113,judge,8,6,2,intermixed,random,large,color,NA,positive,even,arrowdown,1,1801
20,2,114,cue,8,2,6,intermixed,random,large,color,#e21212,positive,even,NA,NA,NA
20,2,114,judge,8,2,6,intermixed,random,large,color,NA,positive,even,arrowdown,1,836
20,2,115,cue,12,6,6,intermixed,random,large,color,#660fbd,positive,even,NA,NA,NA
20,2,115,judge,12,6,6,intermixed,random,large,color,NA,positive,even,arrowdown,1,1074
20,2,116,cue,10,6,4,intermixed,random,large,color,#52970c,positive,even,NA,NA,NA
20,2,116,judge,10,6,4,intermixed,random,large,color,NA,positive,even,arrowup,1,3072
20,2,117,cue,6,2,4,intermixed,random,large,color,#2b5bee,positive,even,NA,NA,NA
20,2,117,judge,6,2,4,intermixed,random,large,color,NA,positive,even,arrowup,1,1136
20,2,118,cue,8,2,6,intermixed,random,large,color,#ecb718,positive,even,NA,NA,NA
20,2,118,judge,8,2,6,intermixed,random,large,color,NA,positive,even,arrowdown,1,1177
20,2,119,cue,8,6,2,intermixed,random,large,color,#52970c,positive,even,NA,NA,NA
20,2,119,judge,8,6,2,intermixed,random,large,color,NA,positive,even,arrowup,1,1156
20,2,120,cue,4,2,2,intermixed,random,large,color,#e713b2,positive,even,NA,NA,NA
20,2,120,judge,4,2,2,intermixed,random,large,color,NA,positive,even,arrowdown,1,2262
20,2,121,cue,6,4,2,intermixed,random,large,color,#52970c,positive,even,NA,NA,NA
20,2,121,judge,6,4,2,intermixed,random,large,color,NA,positive,even,arrowdown,1,1283
20,2,122,cue,8,4,4,intermixed,random,large,color,#0eaaaa,positive,even,NA,NA,NA
20,2,122,judge,8,4,4,intermixed,random,large,color,NA,positive,even,arrowdown,1,1136
20,2,123,cue,10,4,6,intermixed,random,large,color,#2b5bee,positive,even,NA,NA,NA
20,2,123,judge,10,4,6,intermixed,random,large,color,NA,positive,even,arrowup,1,1317
20,2,124,cue,10,6,4,intermixed,random,large,color,#0eaaaa,positive,even,NA,NA,NA
20,2,124,judge,10,6,4,intermixed,random,large,color,NA,positive,even,arrowup,1,1661
20,2,125,cue,12,6,6,intermixed,random,large,color,#e21212,positive,even,NA,NA,NA
20,2,125,judge,12,6,6,intermixed,random,large,color,NA,positive,even,arrowdown,1,1946
21,0,0,cue,6,2,4,intermixed,random,large,color,#52970c,negative,even,NA,NA,NA
21,0,0,judge,6,2,4,intermixed,random,large,color,NA,negative,even,arrowup,1,2322
21,0,1,cue,10,6,4,intermixed,random,large,color,#e21212,negative,even,NA,NA,NA
21,0,1,judge,10,6,4,intermixed,random,large,color,NA,negative,even,arrowdown,1,1192
21,0,2,cue,10,4,6,intermixed,random,large,color,#660fbd,negative,even,NA,NA,NA
21,0,2,judge,10,4,6,intermixed,random,large,color,NA,negative,even,arrowup,1,1279
21,0,3,cue,8,2,6,intermixed,random,large,color,#e713b2,negative,even,NA,NA,NA
21,0,3,judge,8,2,6,intermixed,random,large,color,NA,negative,even,arrowdown,1,1907
21,0,4,cue,8,6,2,intermixed,random,large,color,#0eaaaa,negative,even,NA,NA,NA
21,0,4,judge,8,6,2,intermixed,random,large,color,NA,negative,even,arrowup,1,2316
21,0,5,cue,8,6,2,intermixed,random,large,color,#52970c,negative,even,NA,NA,NA
21,0,5,judge,8,6,2,intermixed,random,large,color,NA,negative,even,arrowdown,1,1986
21,0,6,cue,6,2,4,intermixed,random,large,color,#ecb718,negative,even,NA,NA,NA
21,0,6,judge,6,2,4,intermixed,random,large,color,NA,negative,even,arrowdown,1,1715
21,0,7,cue,6,4,2,intermixed,random,large,color,#2b5bee,negative,even,NA,NA,NA
21,0,7,judge,6,4,2,intermixed,random,large,color,NA,negative,even,arrowup,1,2407
21,0,8,cue,4,2,2,intermixed,random,large,color,#ecb718,negative,even,NA,NA,NA
21,0,8,judge,4,2,2,intermixed,random,large,color,NA,negative,even,arrowdown,1,1204
21,0,9,cue,8,6,2,intermixed,random,large,color,#2b5bee,negative,even,NA,NA,NA
21,0,9,judge,8,6,2,intermixed,random,large,color,NA,negative,even,arrowdown,1,2119
21,0,10,cue,4,2,2,intermixed,random,large,color,#e21212,negative,even,NA,NA,NA
21,0,10,judge,4,2,2,intermixed,random,large,color,NA,negative,even,arrowup,1,2166
21,0,11,cue,6,2,4,intermixed,random,large,color,#660fbd,negative,even,NA,NA,NA
21,0,11,judge,6,2,4,intermixed,random,large,color,NA,negative,even,arrowdown,1,2275
21,0,12,cue,10,6,4,intermixed,random,large,color,#e21212,negative,even,NA,NA,NA
21,0,12,judge,10,6,4,intermixed,random,large,color,NA,negative,even,arrowdown,1,2434
21,0,13,cue,10,6,4,intermixed,random,large,color,#52970c,negative,even,NA,NA,NA
21,0,13,judge,10,6,4,intermixed,random,large,color,NA,negative,even,arrowdown,1,1501
21,0,14,cue,6,2,4,intermixed,random,large,color,#0eaaaa,negative,even,NA,NA,NA
21,0,14,judge,6,2,4,intermixed,random,large,color,NA,negative,even,arrowdown,1,1461
21,0,15,cue,10,4,6,intermixed,random,large,color,#ecb718,negative,even,NA,NA,NA
21,0,15,judge,10,4,6,intermixed,random,large,color,NA,negative,even,arrowup,1,1360
21,0,16,cue,12,6,6,intermixed,random,large,color,#52970c,negative,even,NA,NA,NA
21,0,16,judge,12,6,6,intermixed,random,large,color,NA,negative,even,arrowdown,1,1263
21,0,17,cue,6,2,4,intermixed,random,large,color,#52970c,negative,even,NA,NA,NA
21,0,17,judge,6,2,4,intermixed,random,large,color,NA,negative,even,arrowup,1,1237
21,0,18,cue,6,4,2,intermixed,random,large,color,#2b5bee,negative,even,NA,NA,NA
21,0,18,judge,6,4,2,intermixed,random,large,color,NA,negative,even,arrowup,1,2230
21,0,19,cue,12,6,6,intermixed,random,large,color,#e21212,negative,even,NA,NA,NA
21,0,19,judge,12,6,6,intermixed,random,large,color,NA,negative,even,arrowup,1,1860
21,0,20,cue,8,6,2,intermixed,random,large,color,#660fbd,negative,even,NA,NA,NA
21,0,20,judge,8,6,2,intermixed,random,large,color,NA,negative,even,arrowdown,1,3139
21,0,21,cue,6,2,4,intermixed,random,large,color,#2b5bee,negative,even,NA,NA,NA
21,0,21,judge,6,2,4,intermixed,random,large,color,NA,negative,even,arrowdown,1,2488
21,0,22,cue,10,4,6,intermixed,random,large,color,#660fbd,negative,even,NA,NA,NA
21,0,22,judge,10,4,6,intermixed,random,large,color,NA,negative,even,arrowdown,1,2275
21,0,23,cue,8,6,2,intermixed,random,large,color,#2b5bee,negative,even,NA,NA,NA
21,0,23,judge,8,6,2,intermixed,random,large,color,NA,negative,even,arrowdown,1,1655
21,0,24,cue,8,6,2,intermixed,random,large,color,#e713b2,negative,even,NA,NA,NA
21,0,24,judge,8,6,2,intermixed,random,large,color,NA,negative,even,arrowup,1,2756
21,0,25,cue,8,6,2,intermixed,random,large,color,#e713b2,negative,even,NA,NA,NA
21,0,25,judge,8,6,2,intermixed,random,large,color,NA,negative,even,arrowdown,1,1853
21,0,26,cue,4,2,2,intermixed,random,large,color,#2b5bee,negative,even,NA,NA,NA
21,0,26,judge,4,2,2,intermixed,random,large,color,NA,negative,even,arrowdown,1,1234
21,0,27,cue,12,6,6,intermixed,random,large,color,#e21212,negative,even,NA,NA,NA
21,0,27,judge,12,6,6,intermixed,random,large,color,NA,negative,even,arrowup,1,3023
21,0,28,cue,12,6,6,intermixed,random,large,color,#e713b2,negative,even,NA,NA,NA
21,0,28,judge,12,6,6,intermixed,random,large,color,NA,negative,even,arrowup,1,2637
21,0,29,cue,8,6,2,intermixed,random,large,color,#e713b2,negative,even,NA,NA,NA
21,0,29,judge,8,6,2,intermixed,random,large,color,NA,negative,even,arrowdown,1,1671
21,0,30,cue,6,2,4,intermixed,random,large,color,#e713b2,negative,even,NA,NA,NA
21,0,30,judge,6,2,4,intermixed,random,large,color,NA,negative,even,arrowup,1,1787
21,0,31,cue,8,6,2,intermixed,random,large,color,#2b5bee,negative,even,NA,NA,NA
21,0,31,judge,8,6,2,intermixed,random,large,color,NA,negative,even,arrowup,1,2843
21,0,32,cue,10,4,6,intermixed,random,large,color,#ecb718,negative,even,NA,NA,NA
21,0,32,judge,10,4,6,intermixed,random,large,color,NA,negative,even,arrowdown,1,1823
21,0,33,cue,6,4,2,intermixed,random,large,color,#0eaaaa,negative,even,NA,NA,NA
21,0,33,judge,6,4,2,intermixed,random,large,color,NA,negative,even,arrowdown,1,1447
21,0,34,cue,8,6,2,intermixed,random,large,color,#e713b2,negative,even,NA,NA,NA
21,0,34,judge,8,6,2,intermixed,random,large,color,NA,negative,even,arrowdown,1,2466
21,0,35,cue,6,4,2,intermixed,random,large,color,#0eaaaa,negative,even,NA,NA,NA
21,0,35,judge,6,4,2,intermixed,random,large,color,NA,negative,even,arrowup,1,1485
21,0,36,cue,8,2,6,intermixed,random,large,color,#e21212,negative,even,NA,NA,NA
21,0,36,judge,8,2,6,intermixed,random,large,color,NA,negative,even,arrowup,1,1440
21,0,37,cue,6,4,2,intermixed,random,large,color,#ecb718,negative,even,NA,NA,NA
21,0,37,judge,6,4,2,intermixed,random,large,color,NA,negative,even,arrowup,1,1342
21,0,38,cue,8,2,6,intermixed,random,large,color,#660fbd,negative,even,NA,NA,NA
21,0,38,judge,8,2,6,intermixed,random,large,color,NA,negative,even,arrowup,1,3058
21,0,39,cue,10,4,6,intermixed,random,large,color,#0eaaaa,negative,even,NA,NA,NA
21,0,39,judge,10,4,6,intermixed,random,large,color,NA,negative,even,arrowup,1,1305
21,0,40,cue,6,4,2,intermixed,random,large,color,#0eaaaa,negative,even,NA,NA,NA
21,0,40,judge,6,4,2,intermixed,random,large,color,NA,negative,even,arrowdown,1,2030
21,0,41,cue,10,4,6,intermixed,random,large,color,#2b5bee,negative,even,NA,NA,NA
21,0,41,judge,10,4,6,intermixed,random,large,color,NA,negative,even,arrowup,1,1818
21,0,42,cue,12,6,6,intermixed,random,large,color,#e21212,negative,even,NA,NA,NA
21,0,42,judge,12,6,6,intermixed,random,large,color,NA,negative,even,arrowup,1,1600
21,0,43,cue,8,4,4,intermixed,random,large,color,#660fbd,negative,even,NA,NA,NA
21,0,43,judge,8,4,4,intermixed,random,large,color,NA,negative,even,arrowdown,1,2280
21,0,44,cue,6,2,4,intermixed,random,large,color,#2b5bee,negative,even,NA,NA,NA
21,0,44,judge,6,2,4,intermixed,random,large,color,NA,negative,even,arrowup,1,2041
21,0,45,cue,10,4,6,intermixed,random,large,color,#660fbd,negative,even,NA,NA,NA
21,0,45,judge,10,4,6,intermixed,random,large,color,NA,negative,even,arrowdown,1,2368
21,0,46,cue,8,4,4,intermixed,random,large,color,#52970c,negative,even,NA,NA,NA
21,0,46,judge,8,4,4,intermixed,random,large,color,NA,negative,even,arrowdown,1,2086
21,0,47,cue,12,6,6,intermixed,random,large,color,#0eaaaa,negative,even,NA,NA,NA
21,0,47,judge,12,6,6,intermixed,random,large,color,NA,negative,even,arrowdown,1,1950
21,0,48,cue,12,6,6,intermixed,random,large,color,#e21212,negative,even,NA,NA,NA
21,0,48,judge,12,6,6,intermixed,random,large,color,NA,negative,even,arrowdown,1,2531
21,0,49,cue,12,6,6,intermixed,random,large,color,#ecb718,negative,even,NA,NA,NA
21,0,49,judge,12,6,6,intermixed,random,large,color,NA,negative,even,arrowup,1,4087
21,0,50,cue,10,4,6,intermixed,random,large,color,#2b5bee,negative,even,NA,NA,NA
21,0,50,judge,10,4,6,intermixed,random,large,color,NA,negative,even,arrowdown,1,3078
21,0,51,cue,10,6,4,intermixed,random,large,color,#52970c,negative,even,NA,NA,NA
21,0,51,judge,10,6,4,intermixed,random,large,color,NA,negative,even,arrowup,1,1831
21,0,52,cue,4,2,2,intermixed,random,large,color,#e713b2,negative,even,NA,NA,NA
21,0,52,judge,4,2,2,intermixed,random,large,color,NA,negative,even,arrowdown,1,1439
21,0,53,cue,12,6,6,intermixed,random,large,color,#52970c,negative,even,NA,NA,NA
21,0,53,judge,12,6,6,intermixed,random,large,color,NA,negative,even,arrowup,1,2418
21,0,54,cue,10,6,4,intermixed,random,large,color,#0eaaaa,negative,even,NA,NA,NA
21,0,54,judge,10,6,4,intermixed,random,large,color,NA,negative,even,arrowdown,1,2326
21,0,55,cue,4,2,2,intermixed,random,large,color,#e713b2,negative,even,NA,NA,NA
21,0,55,judge,4,2,2,intermixed,random,large,color,NA,negative,even,arrowdown,1,1742
21,0,56,cue,8,2,6,intermixed,random,large,color,#660fbd,negative,even,NA,NA,NA
21,0,56,judge,8,2,6,intermixed,random,large,color,NA,negative,even,arrowdown,1,1583
21,0,57,cue,8,6,2,intermixed,random,large,color,#2b5bee,negative,even,NA,NA,NA
21,0,57,judge,8,6,2,intermixed,random,large,color,NA,negative,even,arrowdown,1,2672
21,0,58,cue,12,6,6,intermixed,random,large,color,#2b5bee,negative,even,NA,NA,NA
21,0,58,judge,12,6,6,intermixed,random,large,color,NA,negative,even,arrowdown,1,2352
21,0,59,cue,8,4,4,intermixed,random,large,color,#660fbd,negative,even,NA,NA,NA
21,0,59,judge,8,4,4,intermixed,random,large,color,NA,negative,even,arrowdown,1,2172
21,0,60,cue,10,6,4,intermixed,random,large,color,#ecb718,negative,even,NA,NA,NA
21,0,60,judge,10,6,4,intermixed,random,large,color,NA,negative,even,arrowup,1,2839
21,0,61,cue,6,4,2,intermixed,random,large,color,#52970c,negative,even,NA,NA,NA
21,0,61,judge,6,4,2,intermixed,random,large,color,NA,negative,even,arrowup,1,1407
21,0,62,cue,8,2,6,intermixed,random,large,color,#2b5bee,negative,even,NA,NA,NA
21,0,62,judge,8,2,6,intermixed,random,large,color,NA,negative,even,arrowup,1,2413
21,0,63,cue,8,2,6,intermixed,random,large,color,#ecb718,negative,even,NA,NA,NA
21,0,63,judge,8,2,6,intermixed,random,large,color,NA,negative,even,arrowdown,1,1234
21,0,64,cue,12,6,6,intermixed,random,large,color,#0eaaaa,negative,even,NA,NA,NA
21,0,64,judge,12,6,6,intermixed,random,large,color,NA,negative,even,arrowdown,1,2103
21,0,65,cue,6,2,4,intermixed,random,large,color,#e713b2,negative,even,NA,NA,NA
21,0,65,judge,6,2,4,intermixed,random,large,color,NA,negative,even,arrowdown,1,741
21,0,66,cue,6,4,2,intermixed,random,large,color,#660fbd,negative,even,NA,NA,NA
21,0,66,judge,6,4,2,intermixed,random,large,color,NA,negative,even,arrowdown,1,1589
21,0,67,cue,10,6,4,intermixed,random,large,color,#ecb718,negative,even,NA,NA,NA
21,0,67,judge,10,6,4,intermixed,random,large,color,NA,negative,even,arrowup,1,1304
21,0,68,cue,8,4,4,intermixed,random,large,color,#52970c,negative,even,NA,NA,NA
21,0,68,judge,8,4,4,intermixed,random,large,color,NA,negative,even,arrowdown,1,1246
21,0,69,cue,10,6,4,intermixed,random,large,color,#52970c,negative,even,NA,NA,NA
21,0,69,judge,10,6,4,intermixed,random,large,color,NA,negative,even,arrowdown,1,2180
21,0,70,cue,10,4,6,intermixed,random,large,color,#660fbd,negative,even,NA,NA,NA
21,0,70,judge,10,4,6,intermixed,random,large,color,NA,negative,even,arrowup,1,1225
21,0,71,cue,6,2,4,intermixed,random,large,color,#0eaaaa,negative,even,NA,NA,NA
21,0,71,judge,6,2,4,intermixed,random,large,color,NA,negative,even,arrowdown,1,1569
21,0,72,cue,10,6,4,intermixed,random,large,color,#2b5bee,negative,even,NA,NA,NA
21,0,72,judge,10,6,4,intermixed,random,large,color,NA,negative,even,arrowup,1,1472
21,0,73,cue,8,2,6,intermixed,random,large,color,#660fbd,negative,even,NA,NA,NA
21,0,73,judge,8,2,6,intermixed,random,large,color,NA,negative,even,arrowup,1,1109
21,0,74,cue,10,4,6,intermixed,random,large,color,#52970c,negative,even,NA,NA,NA
21,0,74,judge,10,4,6,intermixed,random,large,color,NA,negative,even,arrowup,1,1186
21,0,75,cue,8,2,6,intermixed,random,large,color,#e21212,negative,even,NA,NA,NA
21,0,75,judge,8,2,6,intermixed,random,large,color,NA,negative,even,arrowdown,1,1251
21,0,76,cue,4,2,2,intermixed,random,large,color,#2b5bee,negative,even,NA,NA,NA
21,0,76,judge,4,2,2,intermixed,random,large,color,NA,negative,even,arrowdown,1,1476
21,0,77,cue,4,2,2,intermixed,random,large,color,#e21212,negative,even,NA,NA,NA
21,0,77,judge,4,2,2,intermixed,random,large,color,NA,negative,even,arrowdown,1,1331
21,0,78,cue,4,2,2,intermixed,random,large,color,#0eaaaa,negative,even,NA,NA,NA
21,0,78,judge,4,2,2,intermixed,random,large,color,NA,negative,even,arrowdown,1,638
21,0,79,cue,10,6,4,intermixed,random,large,color,#660fbd,negative,even,NA,NA,NA
21,0,79,judge,10,6,4,intermixed,random,large,color,NA,negative,even,arrowup,1,1604
21,0,80,cue,8,4,4,intermixed,random,large,color,#ecb718,negative,even,NA,NA,NA
21,0,80,judge,8,4,4,intermixed,random,large,color,NA,negative,even,arrowdown,1,2233
21,0,81,cue,8,6,2,intermixed,random,large,color,#660fbd,negative,even,NA,NA,NA
21,0,81,judge,8,6,2,intermixed,random,large,color,NA,negative,even,arrowdown,1,3137
21,0,82,cue,10,4,6,intermixed,random,large,color,#2b5bee,negative,even,NA,NA,NA
21,0,82,judge,10,4,6,intermixed,random,large,color,NA,negative,even,arrowup,1,1973
21,0,83,cue,8,2,6,intermixed,random,large,color,#ecb718,negative,even,NA,NA,NA
21,0,83,judge,8,2,6,intermixed,random,large,color,NA,negative,even,arrowdown,1,863
21,0,84,cue,8,2,6,intermixed,random,large,color,#0eaaaa,negative,even,NA,NA,NA
21,0,84,judge,8,2,6,intermixed,random,large,color,NA,negative,even,arrowdown,1,1417
21,0,85,cue,8,4,4,intermixed,random,large,color,#e21212,negative,even,NA,NA,NA
21,0,85,judge,8,4,4,intermixed,random,large,color,NA,negative,even,arrowup,1,1665
21,0,86,cue,6,4,2,intermixed,random,large,color,#660fbd,negative,even,NA,NA,NA
21,0,86,judge,6,4,2,intermixed,random,large,color,NA,negative,even,arrowup,1,1999
21,0,87,cue,12,6,6,intermixed,random,large,color,#0eaaaa,negative,even,NA,NA,NA
21,0,87,judge,12,6,6,intermixed,random,large,color,NA,negative,even,arrowup,1,1826
21,0,88,cue,10,6,4,intermixed,random,large,color,#e21212,negative,even,NA,NA,NA
21,0,88,judge,10,6,4,intermixed,random,large,color,NA,negative,even,arrowdown,1,2227
21,0,89,cue,8,4,4,intermixed,random,large,color,#52970c,negative,even,NA,NA,NA
21,0,89,judge,8,4,4,intermixed,random,large,color,NA,negative,even,arrowup,1,2143
21,0,90,cue,8,4,4,intermixed,random,large,color,#e713b2,negative,even,NA,NA,NA
21,0,90,judge,8,4,4,intermixed,random,large,color,NA,negative,even,arrowdown,1,3901
21,0,91,cue,4,2,2,intermixed,random,large,color,#ecb718,negative,even,NA,NA,NA
21,0,91,judge,4,2,2,intermixed,random,large,color,NA,negative,even,arrowdown,1,1497
21,0,92,cue,4,2,2,intermixed,random,large,color,#2b5bee,negative,even,NA,NA,NA
21,0,92,judge,4,2,2,intermixed,random,large,color,NA,negative,even,arrowup,1,2273
21,0,93,cue,8,6,2,intermixed,random,large,color,#ecb718,negative,even,NA,NA,NA
21,0,93,judge,8,6,2,intermixed,random,large,color,NA,negative,even,arrowdown,1,1784
21,0,94,cue,4,2,2,intermixed,random,large,color,#660fbd,negative,even,NA,NA,NA
21,0,94,judge,4,2,2,intermixed,random,large,color,NA,negative,even,arrowup,1,1930
21,0,95,cue,4,2,2,intermixed,random,large,color,#ecb718,negative,even,NA,NA,NA
21,0,95,judge,4,2,2,intermixed,random,large,color,NA,negative,even,arrowup,1,1253
21,0,96,cue,8,2,6,intermixed,random,large,color,#ecb718,negative,even,NA,NA,NA
21,0,96,judge,8,2,6,intermixed,random,large,color,NA,negative,even,arrowdown,1,1315
21,0,97,cue,6,4,2,intermixed,random,large,color,#2b5bee,negative,even,NA,NA,NA
21,0,97,judge,6,4,2,intermixed,random,large,color,NA,negative,even,arrowdown,1,1772
21,0,98,cue,6,2,4,intermixed,random,large,color,#ecb718,negative,even,NA,NA,NA
21,0,98,judge,6,2,4,intermixed,random,large,color,NA,negative,even,arrowup,1,1124
21,0,99,cue,8,2,6,intermixed,random,large,color,#e21212,negative,even,NA,NA,NA
21,0,99,judge,8,2,6,intermixed,random,large,color,NA,negative,even,arrowdown,1,1258
21,0,100,cue,6,4,2,intermixed,random,large,color,#e21212,negative,even,NA,NA,NA
21,0,100,judge,6,4,2,intermixed,random,large,color,NA,negative,even,arrowup,1,1214
21,0,101,cue,10,4,6,intermixed,random,large,color,#e713b2,negative,even,NA,NA,NA
21,0,101,judge,10,4,6,intermixed,random,large,color,NA,negative,even,arrowdown,1,2167
21,0,102,cue,8,4,4,intermixed,random,large,color,#2b5bee,negative,even,NA,NA,NA
21,0,102,judge,8,4,4,intermixed,random,large,color,NA,negative,even,arrowup,1,1658
21,0,103,cue,10,6,4,intermixed,random,large,color,#ecb718,negative,even,NA,NA,NA
21,0,103,judge,10,6,4,intermixed,random,large,color,NA,negative,even,arrowdown,1,1361
21,0,104,cue,12,6,6,intermixed,random,large,color,#e21212,negative,even,NA,NA,NA
21,0,104,judge,12,6,6,intermixed,random,large,color,NA,negative,even,arrowup,1,2679
21,0,105,cue,8,4,4,intermixed,random,large,color,#2b5bee,negative,even,NA,NA,NA
21,0,105,judge,8,4,4,intermixed,random,large,color,NA,negative,even,arrowup,1,1756
21,0,106,cue,12,6,6,intermixed,random,large,color,#52970c,negative,even,NA,NA,NA
21,0,106,judge,12,6,6,intermixed,random,large,color,NA,negative,even,arrowdown,1,1594
21,0,107,cue,10,6,4,intermixed,random,large,color,#e21212,negative,even,NA,NA,NA
21,0,107,judge,10,6,4,intermixed,random,large,color,NA,negative,even,arrowup,1,4247
21,0,108,cue,8,4,4,intermixed,random,large,color,#2b5bee,negative,even,NA,NA,NA
21,0,108,judge,8,4,4,intermixed,random,large,color,NA,negative,even,arrowdown,1,1513
21,0,109,cue,10,4,6,intermixed,random,large,color,#0eaaaa,negative,even,NA,NA,NA
21,0,109,judge,10,4,6,intermixed,random,large,color,NA,negative,even,arrowdown,1,2044
21,0,110,cue,6,2,4,intermixed,random,large,color,#52970c,negative,even,NA,NA,NA
21,0,110,judge,6,2,4,intermixed,random,large,color,NA,negative,even,arrowdown,1,1564
21,0,111,cue,8,6,2,intermixed,random,large,color,#e21212,negative,even,NA,NA,NA
21,0,111,judge,8,6,2,intermixed,random,large,color,NA,negative,even,arrowup,1,1498
21,0,112,cue,6,4,2,intermixed,random,large,color,#ecb718,negative,even,NA,NA,NA
21,0,112,judge,6,4,2,intermixed,random,large,color,NA,negative,even,arrowup,1,1870
21,0,113,cue,10,6,4,intermixed,random,large,color,#52970c,negative,even,NA,NA,NA
21,0,113,judge,10,6,4,intermixed,random,large,color,NA,negative,even,arrowdown,1,1311
21,0,114,cue,8,4,4,intermixed,random,large,color,#e21212,negative,even,NA,NA,NA
21,0,114,judge,8,4,4,intermixed,random,large,color,NA,negative,even,arrowdown,1,2935
21,0,115,cue,10,4,6,intermixed,random,large,color,#660fbd,negative,even,NA,NA,NA
21,0,115,judge,10,4,6,intermixed,random,large,color,NA,negative,even,arrowup,1,2099
21,0,116,cue,8,4,4,intermixed,random,large,color,#52970c,negative,even,NA,NA,NA
21,0,116,judge,8,4,4,intermixed,random,large,color,NA,negative,even,arrowdown,1,2104
21,0,117,cue,8,2,6,intermixed,random,large,color,#e713b2,negative,even,NA,NA,NA
21,0,117,judge,8,2,6,intermixed,random,large,color,NA,negative,even,arrowup,1,1434
21,0,118,cue,6,2,4,intermixed,random,large,color,#660fbd,negative,even,NA,NA,NA
21,0,118,judge,6,2,4,intermixed,random,large,color,NA,negative,even,arrowup,1,1843
21,0,119,cue,4,2,2,intermixed,random,large,color,#0eaaaa,negative,even,NA,NA,NA
21,0,119,judge,4,2,2,intermixed,random,large,color,NA,negative,even,arrowdown,1,1210
21,0,120,cue,8,4,4,intermixed,random,large,color,#52970c,negative,even,NA,NA,NA
21,0,120,judge,8,4,4,intermixed,random,large,color,NA,negative,even,arrowup,1,1457
21,0,121,cue,6,4,2,intermixed,random,large,color,#660fbd,negative,even,NA,NA,NA
21,0,121,judge,6,4,2,intermixed,random,large,color,NA,negative,even,arrowdown,1,1752
21,0,122,cue,6,2,4,intermixed,random,large,color,#660fbd,negative,even,NA,NA,NA
21,0,122,judge,6,2,4,intermixed,random,large,color,NA,negative,even,arrowdown,1,1038
21,0,123,cue,6,4,2,intermixed,random,large,color,#0eaaaa,negative,even,NA,NA,NA
21,0,123,judge,6,4,2,intermixed,random,large,color,NA,negative,even,arrowup,1,2080
21,0,124,cue,8,2,6,intermixed,random,large,color,#e21212,negative,even,NA,NA,NA
21,0,124,judge,8,2,6,intermixed,random,large,color,NA,negative,even,arrowdown,1,1361
21,0,125,cue,4,2,2,intermixed,random,large,color,#2b5bee,negative,even,NA,NA,NA
21,0,125,judge,4,2,2,intermixed,random,large,color,NA,negative,even,arrowup,1,1146
21,1,0,cue,8,6,2,intermixed,random,large,color,#660fbd,neutral,even,NA,NA,NA
21,1,0,judge,8,6,2,intermixed,random,large,color,NA,neutral,even,arrowdown,1,2113
21,1,1,cue,10,4,6,intermixed,random,large,color,#e21212,neutral,even,NA,NA,NA
21,1,1,judge,10,4,6,intermixed,random,large,color,NA,neutral,even,arrowdown,1,2434
21,1,2,cue,10,4,6,intermixed,random,large,color,#e713b2,neutral,even,NA,NA,NA
21,1,2,judge,10,4,6,intermixed,random,large,color,NA,neutral,even,arrowup,1,2921
21,1,3,cue,12,6,6,intermixed,random,large,color,#0eaaaa,neutral,even,NA,NA,NA
21,1,3,judge,12,6,6,intermixed,random,large,color,NA,neutral,even,arrowup,1,1346
21,1,4,cue,10,6,4,intermixed,random,large,color,#0eaaaa,neutral,even,NA,NA,NA
21,1,4,judge,10,6,4,intermixed,random,large,color,NA,neutral,even,arrowdown,1,1564
21,1,5,cue,10,6,4,intermixed,random,large,color,#660fbd,neutral,even,NA,NA,NA
21,1,5,judge,10,6,4,intermixed,random,large,color,NA,neutral,even,arrowup,1,2403
21,1,6,cue,6,4,2,intermixed,random,large,color,#ecb718,neutral,even,NA,NA,NA
21,1,6,judge,6,4,2,intermixed,random,large,color,NA,neutral,even,arrowdown,1,1111
21,1,7,cue,8,2,6,intermixed,random,large,color,#52970c,neutral,even,NA,NA,NA
21,1,7,judge,8,2,6,intermixed,random,large,color,NA,neutral,even,arrowdown,1,3820
21,1,8,cue,4,2,2,intermixed,random,large,color,#ecb718,neutral,even,NA,NA,NA
21,1,8,judge,4,2,2,intermixed,random,large,color,NA,neutral,even,arrowdown,1,1435
21,1,9,cue,12,6,6,intermixed,random,large,color,#e713b2,neutral,even,NA,NA,NA
21,1,9,judge,12,6,6,intermixed,random,large,color,NA,neutral,even,arrowdown,1,3420
21,1,10,cue,12,6,6,intermixed,random,large,color,#52970c,neutral,even,NA,NA,NA
21,1,10,judge,12,6,6,intermixed,random,large,color,NA,neutral,even,arrowup,0,NA
21,1,11,cue,10,6,4,intermixed,random,large,color,#e713b2,neutral,even,NA,NA,NA
21,1,11,judge,10,6,4,intermixed,random,large,color,NA,neutral,even,arrowdown,1,2260
21,1,12,cue,8,4,4,intermixed,random,large,color,#e21212,neutral,even,NA,NA,NA
21,1,12,judge,8,4,4,intermixed,random,large,color,NA,neutral,even,arrowup,1,1894
21,1,13,cue,6,4,2,intermixed,random,large,color,#ecb718,neutral,even,NA,NA,NA
21,1,13,judge,6,4,2,intermixed,random,large,color,NA,neutral,even,arrowdown,1,885
21,1,14,cue,8,4,4,intermixed,random,large,color,#0eaaaa,neutral,even,NA,NA,NA
21,1,14,judge,8,4,4,intermixed,random,large,color,NA,neutral,even,arrowup,1,2633
21,1,15,cue,8,2,6,intermixed,random,large,color,#2b5bee,neutral,even,NA,NA,NA
21,1,15,judge,8,2,6,intermixed,random,large,color,NA,neutral,even,arrowdown,1,1445
21,1,16,cue,8,4,4,intermixed,random,large,color,#660fbd,neutral,even,NA,NA,NA
21,1,16,judge,8,4,4,intermixed,random,large,color,NA,neutral,even,arrowdown,1,2867
21,1,17,cue,8,6,2,intermixed,random,large,color,#e713b2,neutral,even,NA,NA,NA
21,1,17,judge,8,6,2,intermixed,random,large,color,NA,neutral,even,arrowdown,1,2417
21,1,18,cue,8,6,2,intermixed,random,large,color,#2b5bee,neutral,even,NA,NA,NA
21,1,18,judge,8,6,2,intermixed,random,large,color,NA,neutral,even,arrowdown,1,831
21,1,19,cue,8,6,2,intermixed,random,large,color,#0eaaaa,neutral,even,NA,NA,NA
21,1,19,judge,8,6,2,intermixed,random,large,color,NA,neutral,even,arrowdown,1,1208
21,1,20,cue,6,4,2,intermixed,random,large,color,#e21212,neutral,even,NA,NA,NA
21,1,20,judge,6,4,2,intermixed,random,large,color,NA,neutral,even,arrowup,1,1302
21,1,21,cue,6,2,4,intermixed,random,large,color,#0eaaaa,neutral,even,NA,NA,NA
21,1,21,judge,6,2,4,intermixed,random,large,color,NA,neutral,even,arrowup,1,1630
21,1,22,cue,6,2,4,intermixed,random,large,color,#2b5bee,neutral,even,NA,NA,NA
21,1,22,judge,6,2,4,intermixed,random,large,color,NA,neutral,even,arrowdown,1,2161
21,1,23,cue,10,4,6,intermixed,random,large,color,#660fbd,neutral,even,NA,NA,NA
21,1,23,judge,10,4,6,intermixed,random,large,color,NA,neutral,even,arrowdown,1,1139
21,1,24,cue,12,6,6,intermixed,random,large,color,#2b5bee,neutral,even,NA,NA,NA
21,1,24,judge,12,6,6,intermixed,random,large,color,NA,neutral,even,arrowdown,1,5880
21,1,25,cue,4,2,2,intermixed,random,large,color,#0eaaaa,neutral,even,NA,NA,NA
21,1,25,judge,4,2,2,intermixed,random,large,color,NA,neutral,even,arrowdown,1,1197
21,1,26,cue,8,6,2,intermixed,random,large,color,#0eaaaa,neutral,even,NA,NA,NA
21,1,26,judge,8,6,2,intermixed,random,large,color,NA,neutral,even,arrowup,1,1552
21,1,27,cue,8,2,6,intermixed,random,large,color,#2b5bee,neutral,even,NA,NA,NA
21,1,27,judge,8,2,6,intermixed,random,large,color,NA,neutral,even,arrowup,1,1989
21,1,28,cue,8,4,4,intermixed,random,large,color,#2b5bee,neutral,even,NA,NA,NA
21,1,28,judge,8,4,4,intermixed,random,large,color,NA,neutral,even,arrowup,1,1030
21,1,29,cue,12,6,6,intermixed,random,large,color,#660fbd,neutral,even,NA,NA,NA
21,1,29,judge,12,6,6,intermixed,random,large,color,NA,neutral,even,arrowdown,1,2874
21,1,30,cue,6,2,4,intermixed,random,large,color,#660fbd,neutral,even,NA,NA,NA
21,1,30,judge,6,2,4,intermixed,random,large,color,NA,neutral,even,arrowdown,1,1931
21,1,31,cue,10,6,4,intermixed,random,large,color,#ecb718,neutral,even,NA,NA,NA
21,1,31,judge,10,6,4,intermixed,random,large,color,NA,neutral,even,arrowup,1,2213
21,1,32,cue,8,6,2,intermixed,random,large,color,#ecb718,neutral,even,NA,NA,NA
21,1,32,judge,8,6,2,intermixed,random,large,color,NA,neutral,even,arrowdown,1,1036
21,1,33,cue,10,4,6,intermixed,random,large,color,#e713b2,neutral,even,NA,NA,NA
21,1,33,judge,10,4,6,intermixed,random,large,color,NA,neutral,even,arrowdown,1,2350
21,1,34,cue,8,6,2,intermixed,random,large,color,#52970c,neutral,even,NA,NA,NA
21,1,34,judge,8,6,2,intermixed,random,large,color,NA,neutral,even,arrowup,1,1486
21,1,35,cue,8,2,6,intermixed,random,large,color,#660fbd,neutral,even,NA,NA,NA
21,1,35,judge,8,2,6,intermixed,random,large,color,NA,neutral,even,arrowup,1,2310
21,1,36,cue,6,2,4,intermixed,random,large,color,#e21212,neutral,even,NA,NA,NA
21,1,36,judge,6,2,4,intermixed,random,large,color,NA,neutral,even,arrowup,1,1661
21,1,37,cue,10,4,6,intermixed,random,large,color,#2b5bee,neutral,even,NA,NA,NA
21,1,37,judge,10,4,6,intermixed,random,large,color,NA,neutral,even,arrowup,1,1537
21,1,38,cue,8,4,4,intermixed,random,large,color,#e713b2,neutral,even,NA,NA,NA
21,1,38,judge,8,4,4,intermixed,random,large,color,NA,neutral,even,arrowup,1,6287
21,1,39,cue,4,2,2,intermixed,random,large,color,#ecb718,neutral,even,NA,NA,NA
21,1,39,judge,4,2,2,intermixed,random,large,color,NA,neutral,even,arrowdown,1,1328
21,1,40,cue,10,4,6,intermixed,random,large,color,#e713b2,neutral,even,NA,NA,NA
21,1,40,judge,10,4,6,intermixed,random,large,color,NA,neutral,even,arrowup,1,1763
21,1,41,cue,8,4,4,intermixed,random,large,color,#e713b2,neutral,even,NA,NA,NA
21,1,41,judge,8,4,4,intermixed,random,large,color,NA,neutral,even,arrowup,1,2345
21,1,42,cue,10,6,4,intermixed,random,large,color,#e21212,neutral,even,NA,NA,NA
21,1,42,judge,10,6,4,intermixed,random,large,color,NA,neutral,even,arrowdown,1,4423
21,1,43,cue,6,2,4,intermixed,random,large,color,#0eaaaa,neutral,even,NA,NA,NA
21,1,43,judge,6,2,4,intermixed,random,large,color,NA,neutral,even,arrowdown,1,1940
21,1,44,cue,10,6,4,intermixed,random,large,color,#e713b2,neutral,even,NA,NA,NA
21,1,44,judge,10,6,4,intermixed,random,large,color,NA,neutral,even,arrowdown,1,2032
21,1,45,cue,10,6,4,intermixed,random,large,color,#52970c,neutral,even,NA,NA,NA
21,1,45,judge,10,6,4,intermixed,random,large,color,NA,neutral,even,arrowdown,1,1793
21,1,46,cue,8,4,4,intermixed,random,large,color,#e713b2,neutral,even,NA,NA,NA
21,1,46,judge,8,4,4,intermixed,random,large,color,NA,neutral,even,arrowup,1,1082
21,1,47,cue,6,4,2,intermixed,random,large,color,#e713b2,neutral,even,NA,NA,NA
21,1,47,judge,6,4,2,intermixed,random,large,color,NA,neutral,even,arrowup,1,1390
21,1,48,cue,6,4,2,intermixed,random,large,color,#e713b2,neutral,even,NA,NA,NA
21,1,48,judge,6,4,2,intermixed,random,large,color,NA,neutral,even,arrowdown,1,2190
21,1,49,cue,8,6,2,intermixed,random,large,color,#2b5bee,neutral,even,NA,NA,NA
21,1,49,judge,8,6,2,intermixed,random,large,color,NA,neutral,even,arrowdown,1,1884
21,1,50,cue,4,2,2,intermixed,random,large,color,#0eaaaa,neutral,even,NA,NA,NA
21,1,50,judge,4,2,2,intermixed,random,large,color,NA,neutral,even,arrowdown,1,1620
21,1,51,cue,10,6,4,intermixed,random,large,color,#660fbd,neutral,even,NA,NA,NA
21,1,51,judge,10,6,4,intermixed,random,large,color,NA,neutral,even,arrowdown,1,1728
21,1,52,cue,10,4,6,intermixed,random,large,color,#0eaaaa,neutral,even,NA,NA,NA
21,1,52,judge,10,4,6,intermixed,random,large,color,NA,neutral,even,arrowup,1,2101
21,1,53,cue,6,2,4,intermixed,random,large,color,#660fbd,neutral,even,NA,NA,NA
21,1,53,judge,6,2,4,intermixed,random,large,color,NA,neutral,even,arrowdown,1,1725
21,1,54,cue,12,6,6,intermixed,random,large,color,#660fbd,neutral,even,NA,NA,NA
21,1,54,judge,12,6,6,intermixed,random,large,color,NA,neutral,even,arrowup,1,3361
21,1,55,cue,10,4,6,intermixed,random,large,color,#ecb718,neutral,even,NA,NA,NA
21,1,55,judge,10,4,6,intermixed,random,large,color,NA,neutral,even,arrowup,1,2754
21,1,56,cue,10,4,6,intermixed,random,large,color,#52970c,neutral,even,NA,NA,NA
21,1,56,judge,10,4,6,intermixed,random,large,color,NA,neutral,even,arrowup,1,3022
21,1,57,cue,8,2,6,intermixed,random,large,color,#e21212,neutral,even,NA,NA,NA
21,1,57,judge,8,2,6,intermixed,random,large,color,NA,neutral,even,arrowup,1,1668
21,1,58,cue,8,6,2,intermixed,random,large,color,#ecb718,neutral,even,NA,NA,NA
21,1,58,judge,8,6,2,intermixed,random,large,color,NA,neutral,even,arrowup,1,2852
21,1,59,cue,8,4,4,intermixed,random,large,color,#2b5bee,neutral,even,NA,NA,NA
21,1,59,judge,8,4,4,intermixed,random,large,color,NA,neutral,even,arrowdown,1,1667
21,1,60,cue,6,2,4,intermixed,random,large,color,#2b5bee,neutral,even,NA,NA,NA
21,1,60,judge,6,2,4,intermixed,random,large,color,NA,neutral,even,arrowdown,1,2669
21,1,61,cue,12,6,6,intermixed,random,large,color,#52970c,neutral,even,NA,NA,NA
21,1,61,judge,12,6,6,intermixed,random,large,color,NA,neutral,even,arrowdown,1,2161
21,1,62,cue,4,2,2,intermixed,random,large,color,#52970c,neutral,even,NA,NA,NA
21,1,62,judge,4,2,2,intermixed,random,large,color,NA,neutral,even,arrowup,1,1703
21,1,63,cue,8,4,4,intermixed,random,large,color,#e713b2,neutral,even,NA,NA,NA
21,1,63,judge,8,4,4,intermixed,random,large,color,NA,neutral,even,arrowup,1,1801
21,1,64,cue,10,4,6,intermixed,random,large,color,#660fbd,neutral,even,NA,NA,NA
21,1,64,judge,10,4,6,intermixed,random,large,color,NA,neutral,even,arrowup,1,2520
21,1,65,cue,4,2,2,intermixed,random,large,color,#e21212,neutral,even,NA,NA,NA
21,1,65,judge,4,2,2,intermixed,random,large,color,NA,neutral,even,arrowdown,1,1571
21,1,66,cue,8,4,4,intermixed,random,large,color,#52970c,neutral,even,NA,NA,NA
21,1,66,judge,8,4,4,intermixed,random,large,color,NA,neutral,even,arrowdown,1,2694
21,1,67,cue,8,2,6,intermixed,random,large,color,#e21212,neutral,even,NA,NA,NA
21,1,67,judge,8,2,6,intermixed,random,large,color,NA,neutral,even,arrowup,1,1188
21,1,68,cue,6,4,2,intermixed,random,large,color,#660fbd,neutral,even,NA,NA,NA
21,1,68,judge,6,4,2,intermixed,random,large,color,NA,neutral,even,arrowup,1,3403
21,1,69,cue,6,4,2,intermixed,random,large,color,#e713b2,neutral,even,NA,NA,NA
21,1,69,judge,6,4,2,intermixed,random,large,color,NA,neutral,even,arrowup,1,1765
21,1,70,cue,8,2,6,intermixed,random,large,color,#e21212,neutral,even,NA,NA,NA
21,1,70,judge,8,2,6,intermixed,random,large,color,NA,neutral,even,arrowup,1,1470
21,1,71,cue,12,6,6,intermixed,random,large,color,#2b5bee,neutral,even,NA,NA,NA
21,1,71,judge,12,6,6,intermixed,random,large,color,NA,neutral,even,arrowdown,1,3672
21,1,72,cue,10,6,4,intermixed,random,large,color,#e21212,neutral,even,NA,NA,NA
21,1,72,judge,10,6,4,intermixed,random,large,color,NA,neutral,even,arrowup,1,1066
21,1,73,cue,8,2,6,intermixed,random,large,color,#2b5bee,neutral,even,NA,NA,NA
21,1,73,judge,8,2,6,intermixed,random,large,color,NA,neutral,even,arrowdown,1,1032
21,1,74,cue,4,2,2,intermixed,random,large,color,#660fbd,neutral,even,NA,NA,NA
21,1,74,judge,4,2,2,intermixed,random,large,color,NA,neutral,even,arrowdown,1,833
21,1,75,cue,12,6,6,intermixed,random,large,color,#e713b2,neutral,even,NA,NA,NA
21,1,75,judge,12,6,6,intermixed,random,large,color,NA,neutral,even,arrowup,1,2165
21,1,76,cue,4,2,2,intermixed,random,large,color,#e21212,neutral,even,NA,NA,NA
21,1,76,judge,4,2,2,intermixed,random,large,color,NA,neutral,even,arrowdown,1,1264
21,1,77,cue,4,2,2,intermixed,random,large,color,#660fbd,neutral,even,NA,NA,NA
21,1,77,judge,4,2,2,intermixed,random,large,color,NA,neutral,even,arrowup,1,2084
21,1,78,cue,10,4,6,intermixed,random,large,color,#e21212,neutral,even,NA,NA,NA
21,1,78,judge,10,4,6,intermixed,random,large,color,NA,neutral,even,arrowup,1,2492
21,1,79,cue,6,2,4,intermixed,random,large,color,#e713b2,neutral,even,NA,NA,NA
21,1,79,judge,6,2,4,intermixed,random,large,color,NA,neutral,even,arrowup,1,1519
21,1,80,cue,4,2,2,intermixed,random,large,color,#52970c,neutral,even,NA,NA,NA
21,1,80,judge,4,2,2,intermixed,random,large,color,NA,neutral,even,arrowup,1,1774
21,1,81,cue,10,4,6,intermixed,random,large,color,#52970c,neutral,even,NA,NA,NA
21,1,81,judge,10,4,6,intermixed,random,large,color,NA,neutral,even,arrowup,1,2115
21,1,82,cue,8,2,6,intermixed,random,large,color,#660fbd,neutral,even,NA,NA,NA
21,1,82,judge,8,2,6,intermixed,random,large,color,NA,neutral,even,arrowup,1,1646
21,1,83,cue,8,4,4,intermixed,random,large,color,#52970c,neutral,even,NA,NA,NA
21,1,83,judge,8,4,4,intermixed,random,large,color,NA,neutral,even,arrowup,1,1746
21,1,84,cue,8,4,4,intermixed,random,large,color,#660fbd,neutral,even,NA,NA,NA
21,1,84,judge,8,4,4,intermixed,random,large,color,NA,neutral,even,arrowdown,1,2667
21,1,85,cue,10,6,4,intermixed,random,large,color,#ecb718,neutral,even,NA,NA,NA
21,1,85,judge,10,6,4,intermixed,random,large,color,NA,neutral,even,arrowdown,1,2263
21,1,86,cue,10,4,6,intermixed,random,large,color,#2b5bee,neutral,even,NA,NA,NA
21,1,86,judge,10,4,6,intermixed,random,large,color,NA,neutral,even,arrowup,1,1922
21,1,87,cue,6,4,2,intermixed,random,large,color,#52970c,neutral,even,NA,NA,NA
21,1,87,judge,6,4,2,intermixed,random,large,color,NA,neutral,even,arrowup,1,1874
21,1,88,cue,8,2,6,intermixed,random,large,color,#2b5bee,neutral,even,NA,NA,NA
21,1,88,judge,8,2,6,intermixed,random,large,color,NA,neutral,even,arrowup,1,1892
21,1,89,cue,8,6,2,intermixed,random,large,color,#e713b2,neutral,even,NA,NA,NA
21,1,89,judge,8,6,2,intermixed,random,large,color,NA,neutral,even,arrowdown,1,1650
21,1,90,cue,8,6,2,intermixed,random,large,color,#e713b2,neutral,even,NA,NA,NA
21,1,90,judge,8,6,2,intermixed,random,large,color,NA,neutral,even,arrowdown,1,2809
21,1,91,cue,6,4,2,intermixed,random,large,color,#52970c,neutral,even,NA,NA,NA
21,1,91,judge,6,4,2,intermixed,random,large,color,NA,neutral,even,arrowup,1,2679
21,1,92,cue,10,6,4,intermixed,random,large,color,#e713b2,neutral,even,NA,NA,NA
21,1,92,judge,10,6,4,intermixed,random,large,color,NA,neutral,even,arrowup,1,4284
21,1,93,cue,4,2,2,intermixed,random,large,color,#660fbd,neutral,even,NA,NA,NA
21,1,93,judge,4,2,2,intermixed,random,large,color,NA,neutral,even,arrowdown,1,2474
21,1,94,cue,10,4,6,intermixed,random,large,color,#0eaaaa,neutral,even,NA,NA,NA
21,1,94,judge,10,4,6,intermixed,random,large,color,NA,neutral,even,arrowup,1,2187
21,1,95,cue,10,6,4,intermixed,random,large,color,#2b5bee,neutral,even,NA,NA,NA
21,1,95,judge,10,6,4,intermixed,random,large,color,NA,neutral,even,arrowdown,1,2341
21,1,96,cue,8,2,6,intermixed,random,large,color,#52970c,neutral,even,NA,NA,NA
21,1,96,judge,8,2,6,intermixed,random,large,color,NA,neutral,even,arrowup,1,2469
21,1,97,cue,12,6,6,intermixed,random,large,color,#0eaaaa,neutral,even,NA,NA,NA
21,1,97,judge,12,6,6,intermixed,random,large,color,NA,neutral,even,arrowdown,1,1741
21,1,98,cue,8,6,2,intermixed,random,large,color,#52970c,neutral,even,NA,NA,NA
21,1,98,judge,8,6,2,intermixed,random,large,color,NA,neutral,even,arrowdown,1,1337
21,1,99,cue,4,2,2,intermixed,random,large,color,#ecb718,neutral,even,NA,NA,NA
21,1,99,judge,4,2,2,intermixed,random,large,color,NA,neutral,even,arrowdown,1,1312
21,1,100,cue,10,6,4,intermixed,random,large,color,#52970c,neutral,even,NA,NA,NA
21,1,100,judge,10,6,4,intermixed,random,large,color,NA,neutral,even,arrowdown,1,1811
21,1,101,cue,6,4,2,intermixed,random,large,color,#2b5bee,neutral,even,NA,NA,NA
21,1,101,judge,6,4,2,intermixed,random,large,color,NA,neutral,even,arrowdown,1,2308
21,1,102,cue,10,6,4,intermixed,random,large,color,#660fbd,neutral,even,NA,NA,NA
21,1,102,judge,10,6,4,intermixed,random,large,color,NA,neutral,even,arrowup,1,1314
21,1,103,cue,6,2,4,intermixed,random,large,color,#660fbd,neutral,even,NA,NA,NA
21,1,103,judge,6,2,4,intermixed,random,large,color,NA,neutral,even,arrowdown,1,2465
21,1,104,cue,8,6,2,intermixed,random,large,color,#ecb718,neutral,even,NA,NA,NA
21,1,104,judge,8,6,2,intermixed,random,large,color,NA,neutral,even,arrowup,1,1635
21,1,105,cue,4,2,2,intermixed,random,large,color,#ecb718,neutral,even,NA,NA,NA
21,1,105,judge,4,2,2,intermixed,random,large,color,NA,neutral,even,arrowdown,1,1718
21,1,106,cue,8,2,6,intermixed,random,large,color,#2b5bee,neutral,even,NA,NA,NA
21,1,106,judge,8,2,6,intermixed,random,large,color,NA,neutral,even,arrowup,1,1402
21,1,107,cue,6,2,4,intermixed,random,large,color,#ecb718,neutral,even,NA,NA,NA
21,1,107,judge,6,2,4,intermixed,random,large,color,NA,neutral,even,arrowup,1,1917
21,1,108,cue,6,2,4,intermixed,random,large,color,#ecb718,neutral,even,NA,NA,NA
21,1,108,judge,6,2,4,intermixed,random,large,color,NA,neutral,even,arrowup,1,1498
21,1,109,cue,6,2,4,intermixed,random,large,color,#660fbd,neutral,even,NA,NA,NA
21,1,109,judge,6,2,4,intermixed,random,large,color,NA,neutral,even,arrowup,1,1601
21,1,110,cue,6,4,2,intermixed,random,large,color,#2b5bee,neutral,even,NA,NA,NA
21,1,110,judge,6,4,2,intermixed,random,large,color,NA,neutral,even,arrowdown,1,1399
21,1,111,cue,12,6,6,intermixed,random,large,color,#2b5bee,neutral,even,NA,NA,NA
21,1,111,judge,12,6,6,intermixed,random,large,color,NA,neutral,even,arrowdown,1,2949
