participant,block,trial,screenID,setsize,nTarget,nDistractor,layout,colorCon,radius,cueType,cueColor,condition,ratio,correct,acc,RT
1,0,0,cue,8,4,4,intermixed,random,large,color,#660fbd,negative,even,NA,NA,NA
1,0,0,judge,8,4,4,intermixed,random,large,color,NA,negative,even,arrowup,1,1011
1,0,1,cue,4,2,2,separated,random,large,color,#52970c,negative,even,NA,NA,NA
1,0,1,judge,4,2,2,separated,random,large,color,NA,negative,even,arrowdown,1,992
1,0,2,cue,8,4,4,separated,random,large,color,#2b5bee,negative,even,NA,NA,NA
1,0,2,judge,8,4,4,separated,random,large,color,NA,negative,even,arrowup,1,880
1,0,3,cue,8,4,4,separated,random,large,color,#52970c,negative,even,NA,NA,NA
1,0,3,judge,8,4,4,separated,random,large,color,NA,negative,even,arrowdown,1,1399
1,0,4,cue,4,2,2,separated,random,large,color,#ecb718,negative,even,NA,NA,NA
1,0,4,judge,4,2,2,separated,random,large,color,NA,negative,even,arrowup,1,730
1,0,5,cue,4,2,2,separated,random,large,color,#52970c,negative,even,NA,NA,NA
1,0,5,judge,4,2,2,separated,random,large,color,NA,negative,even,arrowup,1,860
1,0,6,cue,12,6,6,separated,random,large,color,#2b5bee,negative,even,NA,NA,NA
1,0,6,judge,12,6,6,separated,random,large,color,NA,negative,even,arrowdown,1,1919
1,0,7,cue,8,4,4,intermixed,random,large,color,#e713b2,negative,even,NA,NA,NA
1,0,7,judge,8,4,4,intermixed,random,large,color,NA,negative,even,arrowup,1,1682
1,0,8,cue,12,6,6,separated,random,large,color,#ecb718,negative,even,NA,NA,NA
1,0,8,judge,12,6,6,separated,random,large,color,NA,negative,even,arrowdown,1,1140
1,0,9,cue,4,2,2,intermixed,random,large,color,#e713b2,negative,even,NA,NA,NA
1,0,9,judge,4,2,2,intermixed,random,large,color,NA,negative,even,arrowup,1,957
1,0,10,cue,12,6,6,separated,random,large,color,#0eaaaa,negative,even,NA,NA,NA
1,0,10,judge,12,6,6,separated,random,large,color,NA,negative,even,arrowdown,1,1031
1,0,11,cue,4,2,2,intermixed,random,large,color,#e713b2,negative,even,NA,NA,NA
1,0,11,judge,4,2,2,intermixed,random,large,color,NA,negative,even,arrowup,1,1017
1,0,12,cue,4,2,2,intermixed,random,large,color,#e713b2,negative,even,NA,NA,NA
1,0,12,judge,4,2,2,intermixed,random,large,color,NA,negative,even,arrowup,1,1213
1,0,13,cue,8,4,4,separated,random,large,color,#ecb718,negative,even,NA,NA,NA
1,0,13,judge,8,4,4,separated,random,large,color,NA,negative,even,arrowdown,1,844
1,0,14,cue,12,6,6,intermixed,random,large,color,#e713b2,negative,even,NA,NA,NA
1,0,14,judge,12,6,6,intermixed,random,large,color,NA,negative,even,arrowup,1,1728
1,0,15,cue,4,2,2,intermixed,random,large,color,#52970c,negative,even,NA,NA,NA
1,0,15,judge,4,2,2,intermixed,random,large,color,NA,negative,even,arrowup,1,810
1,0,16,cue,12,6,6,intermixed,random,large,color,#ecb718,negative,even,NA,NA,NA
1,0,16,judge,12,6,6,intermixed,random,large,color,NA,negative,even,arrowdown,1,1924
1,0,17,cue,4,2,2,separated,random,large,color,#52970c,negative,even,NA,NA,NA
1,0,17,judge,4,2,2,separated,random,large,color,NA,negative,even,arrowup,1,735
1,0,18,cue,4,2,2,intermixed,random,large,color,#e713b2,negative,even,NA,NA,NA
1,0,18,judge,4,2,2,intermixed,random,large,color,NA,negative,even,arrowup,1,857
1,0,19,cue,12,6,6,separated,random,large,color,#2b5bee,negative,even,NA,NA,NA
1,0,19,judge,12,6,6,separated,random,large,color,NA,negative,even,arrowup,1,1342
1,0,20,cue,12,6,6,separated,random,large,color,#660fbd,negative,even,NA,NA,NA
1,0,20,judge,12,6,6,separated,random,large,color,NA,negative,even,arrowup,1,1697
1,0,21,cue,8,4,4,intermixed,random,large,color,#e21212,negative,even,NA,NA,NA
1,0,21,judge,8,4,4,intermixed,random,large,color,NA,negative,even,arrowup,1,868
1,0,22,cue,8,4,4,intermixed,random,large,color,#e21212,negative,even,NA,NA,NA
1,0,22,judge,8,4,4,intermixed,random,large,color,NA,negative,even,arrowdown,1,1074
1,0,23,cue,12,6,6,intermixed,random,large,color,#52970c,negative,even,NA,NA,NA
1,0,23,judge,12,6,6,intermixed,random,large,color,NA,negative,even,arrowup,1,1015
1,0,24,cue,8,4,4,separated,random,large,color,#e713b2,negative,even,NA,NA,NA
1,0,24,judge,8,4,4,separated,random,large,color,NA,negative,even,arrowdown,1,1256
1,0,25,cue,8,4,4,separated,random,large,color,#ecb718,negative,even,NA,NA,NA
1,0,25,judge,8,4,4,separated,random,large,color,NA,negative,even,arrowup,1,854
1,0,26,cue,12,6,6,intermixed,random,large,color,#e713b2,negative,even,NA,NA,NA
1,0,26,judge,12,6,6,intermixed,random,large,color,NA,negative,even,arrowdown,1,1368
1,0,27,cue,4,2,2,separated,random,large,color,#ecb718,negative,even,NA,NA,NA
1,0,27,judge,4,2,2,separated,random,large,color,NA,negative,even,arrowup,1,873
1,0,28,cue,8,4,4,intermixed,random,large,color,#e713b2,negative,even,NA,NA,NA
1,0,28,judge,8,4,4,intermixed,random,large,color,NA,negative,even,arrowdown,1,1504
1,0,29,cue,12,6,6,intermixed,random,large,color,#52970c,negative,even,NA,NA,NA
1,0,29,judge,12,6,6,intermixed,random,large,color,NA,negative,even,arrowdown,1,1157
1,1,0,cue,8,4,4,separated,random,large,color,#2b5bee,neutral,even,NA,NA,NA
1,1,0,judge,8,4,4,separated,random,large,color,NA,neutral,even,arrowdown,1,935
1,1,1,cue,4,2,2,separated,random,large,color,#2b5bee,neutral,even,NA,NA,NA
1,1,1,judge,4,2,2,separated,random,large,color,NA,neutral,even,arrowup,1,1073
1,1,2,cue,4,2,2,intermixed,random,large,color,#ecb718,neutral,even,NA,NA,NA
1,1,2,judge,4,2,2,intermixed,random,large,color,NA,neutral,even,arrowdown,1,926
1,1,3,cue,4,2,2,intermixed,random,large,color,#52970c,neutral,even,NA,NA,NA
1,1,3,judge,4,2,2,intermixed,random,large,color,NA,neutral,even,arrowdown,1,1562
1,1,4,cue,8,4,4,separated,random,large,color,#660fbd,neutral,even,NA,NA,NA
1,1,4,judge,8,4,4,separated,random,large,color,NA,neutral,even,arrowup,1,1174
1,1,5,cue,8,4,4,intermixed,random,large,color,#e713b2,neutral,even,NA,NA,NA
1,1,5,judge,8,4,4,intermixed,random,large,color,NA,neutral,even,arrowdown,1,786
1,1,6,cue,8,4,4,separated,random,large,color,#660fbd,neutral,even,NA,NA,NA
1,1,6,judge,8,4,4,separated,random,large,color,NA,neutral,even,arrowup,1,1791
1,1,7,cue,4,2,2,intermixed,random,large,color,#ecb718,neutral,even,NA,NA,NA
1,1,7,judge,4,2,2,intermixed,random,large,color,NA,neutral,even,arrowdown,1,782
1,1,8,cue,12,6,6,intermixed,random,large,color,#e21212,neutral,even,NA,NA,NA
1,1,8,judge,12,6,6,intermixed,random,large,color,NA,neutral,even,arrowdown,1,1970
1,1,9,cue,8,4,4,separated,random,large,color,#2b5bee,neutral,even,NA,NA,NA
1,1,9,judge,8,4,4,separated,random,large,color,NA,neutral,even,arrowdown,1,2482
1,1,10,cue,12,6,6,separated,random,large,color,#52970c,neutral,even,NA,NA,NA
1,1,10,judge,12,6,6,separated,random,large,color,NA,neutral,even,arrowup,1,1153
1,1,11,cue,4,2,2,intermixed,random,large,color,#52970c,neutral,even,NA,NA,NA
1,1,11,judge,4,2,2,intermixed,random,large,color,NA,neutral,even,arrowup,1,1301
1,1,12,cue,8,4,4,intermixed,random,large,color,#ecb718,neutral,even,NA,NA,NA
1,1,12,judge,8,4,4,intermixed,random,large,color,NA,neutral,even,arrowup,1,1803
1,1,13,cue,8,4,4,separated,random,large,color,#ecb718,neutral,even,NA,NA,NA
1,1,13,judge,8,4,4,separated,random,large,color,NA,neutral,even,arrowup,1,1466
1,1,14,cue,12,6,6,separated,random,large,color,#660fbd,neutral,even,NA,NA,NA
1,1,14,judge,12,6,6,separated,random,large,color,NA,neutral,even,arrowdown,1,2464
1,1,15,cue,12,6,6,intermixed,random,large,color,#e713b2,neutral,even,NA,NA,NA
1,1,15,judge,12,6,6,intermixed,random,large,color,NA,neutral,even,arrowdown,1,895
1,1,16,cue,12,6,6,separated,random,large,color,#e713b2,neutral,even,NA,NA,NA
1,1,16,judge,12,6,6,separated,random,large,color,NA,neutral,even,arrowup,1,776
1,1,17,cue,4,2,2,separated,random,large,color,#2b5bee,neutral,even,NA,NA,NA
1,1,17,judge,4,2,2,separated,random,large,color,NA,neutral,even,arrowdown,1,721
1,1,18,cue,12,6,6,separated,random,large,color,#660fbd,neutral,even,NA,NA,NA
1,1,18,judge,12,6,6,separated,random,large,color,NA,neutral,even,arrowdown,1,1490
1,1,19,cue,12,6,6,intermixed,random,large,color,#52970c,neutral,even,NA,NA,NA
1,1,19,judge,12,6,6,intermixed,random,large,color,NA,neutral,even,arrowdown,1,2134
1,1,20,cue,8,4,4,intermixed,random,large,color,#52970c,neutral,even,NA,NA,NA
1,1,20,judge,8,4,4,intermixed,random,large,color,NA,neutral,even,arrowdown,1,2230
1,1,21,cue,8,4,4,intermixed,random,large,color,#52970c,neutral,even,NA,NA,NA
1,1,21,judge,8,4,4,intermixed,random,large,color,NA,neutral,even,arrowup,1,1022
1,1,22,cue,4,2,2,separated,random,large,color,#e713b2,neutral,even,NA,NA,NA
1,1,22,judge,4,2,2,separated,random,large,color,NA,neutral,even,arrowdown,1,752
1,1,23,cue,12,6,6,intermixed,random,large,color,#0eaaaa,neutral,even,NA,NA,NA
1,1,23,judge,12,6,6,intermixed,random,large,color,NA,neutral,even,arrowup,1,2611
1,1,24,cue,4,2,2,separated,random,large,color,#e21212,neutral,even,NA,NA,NA
1,1,24,judge,4,2,2,separated,random,large,color,NA,neutral,even,arrowup,1,1456
1,1,25,cue,4,2,2,intermixed,random,large,color,#ecb718,neutral,even,NA,NA,NA
1,1,25,judge,4,2,2,intermixed,random,large,color,NA,neutral,even,arrowdown,1,965
1,1,26,cue,12,6,6,intermixed,random,large,color,#e21212,neutral,even,NA,NA,NA
1,1,26,judge,12,6,6,intermixed,random,large,color,NA,neutral,even,arrowup,1,1354
1,1,27,cue,12,6,6,separated,random,large,color,#660fbd,neutral,even,NA,NA,NA
1,1,27,judge,12,6,6,separated,random,large,color,NA,neutral,even,arrowup,1,2687
1,1,28,cue,8,4,4,intermixed,random,large,color,#e21212,neutral,even,NA,NA,NA
1,1,28,judge,8,4,4,intermixed,random,large,color,NA,neutral,even,arrowdown,1,2069
1,1,29,cue,4,2,2,separated,random,large,color,#2b5bee,neutral,even,NA,NA,NA
1,1,29,judge,4,2,2,separated,random,large,color,NA,neutral,even,arrowup,1,1322
1,2,0,cue,8,4,4,intermixed,random,large,color,#ecb718,positive,even,NA,NA,NA
1,2,0,judge,8,4,4,intermixed,random,large,color,NA,positive,even,arrowup,1,812
1,2,1,cue,8,4,4,intermixed,random,large,color,#2b5bee,positive,even,NA,NA,NA
1,2,1,judge,8,4,4,intermixed,random,large,color,NA,positive,even,arrowup,1,884
1,2,2,cue,8,4,4,separated,random,large,color,#e21212,positive,even,NA,NA,NA
1,2,2,judge,8,4,4,separated,random,large,color,NA,positive,even,arrowdown,1,1077
1,2,3,cue,4,2,2,intermixed,random,large,color,#660fbd,positive,even,NA,NA,NA
1,2,3,judge,4,2,2,intermixed,random,large,color,NA,positive,even,arrowup,1,635
1,2,4,cue,4,2,2,separated,random,large,color,#0eaaaa,positive,even,NA,NA,NA
1,2,4,judge,4,2,2,separated,random,large,color,NA,positive,even,arrowdown,1,858
1,2,5,cue,12,6,6,separated,random,large,color,#ecb718,positive,even,NA,NA,NA
1,2,5,judge,12,6,6,separated,random,large,color,NA,positive,even,arrowup,1,1693
1,2,6,cue,8,4,4,separated,random,large,color,#e21212,positive,even,NA,NA,NA
1,2,6,judge,8,4,4,separated,random,large,color,NA,positive,even,arrowup,1,767
1,2,7,cue,8,4,4,separated,random,large,color,#660fbd,positive,even,NA,NA,NA
1,2,7,judge,8,4,4,separated,random,large,color,NA,positive,even,arrowdown,1,1151
1,2,8,cue,12,6,6,separated,random,large,color,#52970c,positive,even,NA,NA,NA
1,2,8,judge,12,6,6,separated,random,large,color,NA,positive,even,arrowdown,1,1010
1,2,9,cue,12,6,6,intermixed,random,large,color,#e21212,positive,even,NA,NA,NA
1,2,9,judge,12,6,6,intermixed,random,large,color,NA,positive,even,arrowdown,1,1369
1,2,10,cue,12,6,6,intermixed,random,large,color,#0eaaaa,positive,even,NA,NA,NA
1,2,10,judge,12,6,6,intermixed,random,large,color,NA,positive,even,arrowdown,1,1518
1,2,11,cue,4,2,2,separated,random,large,color,#2b5bee,positive,even,NA,NA,NA
1,2,11,judge,4,2,2,separated,random,large,color,NA,positive,even,arrowdown,1,700
1,2,12,cue,12,6,6,intermixed,random,large,color,#0eaaaa,positive,even,NA,NA,NA
1,2,12,judge,12,6,6,intermixed,random,large,color,NA,positive,even,arrowup,1,1662
1,2,13,cue,12,6,6,separated,random,large,color,#52970c,positive,even,NA,NA,NA
1,2,13,judge,12,6,6,separated,random,large,color,NA,positive,even,arrowdown,1,1079
1,2,14,cue,4,2,2,intermixed,random,large,color,#e21212,positive,even,NA,NA,NA
1,2,14,judge,4,2,2,intermixed,random,large,color,NA,positive,even,arrowdown,1,767
1,2,15,cue,8,4,4,intermixed,random,large,color,#660fbd,positive,even,NA,NA,NA
1,2,15,judge,8,4,4,intermixed,random,large,color,NA,positive,even,arrowdown,1,1144
1,2,16,cue,4,2,2,separated,random,large,color,#52970c,positive,even,NA,NA,NA
1,2,16,judge,4,2,2,separated,random,large,color,NA,positive,even,arrowup,1,927
1,2,17,cue,4,2,2,separated,random,large,color,#2b5bee,positive,even,NA,NA,NA
1,2,17,judge,4,2,2,separated,random,large,color,NA,positive,even,arrowup,0,868
1,2,18,cue,4,2,2,separated,random,large,color,#e713b2,positive,even,NA,NA,NA
1,2,18,judge,4,2,2,separated,random,large,color,NA,positive,even,arrowdown,1,926
1,2,19,cue,4,2,2,intermixed,random,large,color,#660fbd,positive,even,NA,NA,NA
1,2,19,judge,4,2,2,intermixed,random,large,color,NA,positive,even,arrowup,1,1087
1,2,20,cue,8,4,4,intermixed,random,large,color,#52970c,positive,even,NA,NA,NA
1,2,20,judge,8,4,4,intermixed,random,large,color,NA,positive,even,arrowdown,1,1411
1,2,21,cue,8,4,4,separated,random,large,color,#52970c,positive,even,NA,NA,NA
1,2,21,judge,8,4,4,separated,random,large,color,NA,positive,even,arrowdown,1,1411
1,2,22,cue,12,6,6,separated,random,large,color,#e21212,positive,even,NA,NA,NA
1,2,22,judge,12,6,6,separated,random,large,color,NA,positive,even,arrowdown,1,1655
1,2,23,cue,8,4,4,intermixed,random,large,color,#52970c,positive,even,NA,NA,NA
1,2,23,judge,8,4,4,intermixed,random,large,color,NA,positive,even,arrowdown,1,917
1,2,24,cue,12,6,6,separated,random,large,color,#660fbd,positive,even,NA,NA,NA
1,2,24,judge,12,6,6,separated,random,large,color,NA,positive,even,arrowdown,1,1139
1,2,25,cue,4,2,2,intermixed,random,large,color,#2b5bee,positive,even,NA,NA,NA
1,2,25,judge,4,2,2,intermixed,random,large,color,NA,positive,even,arrowdown,1,676
1,2,26,cue,8,4,4,separated,random,large,color,#0eaaaa,positive,even,NA,NA,NA
1,2,26,judge,8,4,4,separated,random,large,color,NA,positive,even,arrowup,1,1243
1,2,27,cue,4,2,2,intermixed,random,large,color,#52970c,positive,even,NA,NA,NA
1,2,27,judge,4,2,2,intermixed,random,large,color,NA,positive,even,arrowdown,1,680
1,2,28,cue,12,6,6,intermixed,random,large,color,#ecb718,positive,even,NA,NA,NA
1,2,28,judge,12,6,6,intermixed,random,large,color,NA,positive,even,arrowup,1,852
1,2,29,cue,12,6,6,intermixed,random,large,color,#ecb718,positive,even,NA,NA,NA
1,2,29,judge,12,6,6,intermixed,random,large,color,NA,positive,even,arrowup,1,1424
2,0,0,cue,4,2,2,separated,random,large,color,#ecb718,positive,even,NA,NA,NA
2,0,0,judge,4,2,2,separated,random,large,color,NA,positive,even,arrowup,1,1406
2,0,1,cue,12,6,6,separated,random,large,color,#660fbd,positive,even,NA,NA,NA
2,0,1,judge,12,6,6,separated,random,large,color,NA,positive,even,arrowdown,1,2615
2,0,2,cue,12,6,6,separated,random,large,color,#2b5bee,positive,even,NA,NA,NA
2,0,2,judge,12,6,6,separated,random,large,color,NA,positive,even,arrowdown,1,2094
2,0,3,cue,4,2,2,separated,random,large,color,#52970c,positive,even,NA,NA,NA
2,0,3,judge,4,2,2,separated,random,large,color,NA,positive,even,arrowdown,1,1004
2,0,4,cue,12,6,6,separated,random,large,color,#2b5bee,positive,even,NA,NA,NA
2,0,4,judge,12,6,6,separated,random,large,color,NA,positive,even,arrowup,1,1261
2,0,5,cue,4,2,2,intermixed,random,large,color,#2b5bee,positive,even,NA,NA,NA
2,0,5,judge,4,2,2,intermixed,random,large,color,NA,positive,even,arrowdown,1,894
2,0,6,cue,8,4,4,separated,random,large,color,#2b5bee,positive,even,NA,NA,NA
2,0,6,judge,8,4,4,separated,random,large,color,NA,positive,even,arrowdown,1,3242
2,0,7,cue,8,4,4,intermixed,random,large,color,#e21212,positive,even,NA,NA,NA
2,0,7,judge,8,4,4,intermixed,random,large,color,NA,positive,even,arrowdown,1,745
2,0,8,cue,8,4,4,intermixed,random,large,color,#0eaaaa,positive,even,NA,NA,NA
2,0,8,judge,8,4,4,intermixed,random,large,color,NA,positive,even,arrowup,1,1096
2,0,9,cue,8,4,4,intermixed,random,large,color,#ecb718,positive,even,NA,NA,NA
2,0,9,judge,8,4,4,intermixed,random,large,color,NA,positive,even,arrowup,1,1086
2,0,10,cue,12,6,6,intermixed,random,large,color,#ecb718,positive,even,NA,NA,NA
2,0,10,judge,12,6,6,intermixed,random,large,color,NA,positive,even,arrowdown,1,1907
2,0,11,cue,4,2,2,separated,random,large,color,#0eaaaa,positive,even,NA,NA,NA
2,0,11,judge,4,2,2,separated,random,large,color,NA,positive,even,arrowdown,1,792
2,0,12,cue,12,6,6,intermixed,random,large,color,#0eaaaa,positive,even,NA,NA,NA
2,0,12,judge,12,6,6,intermixed,random,large,color,NA,positive,even,arrowup,1,899
2,0,13,cue,4,2,2,separated,random,large,color,#e21212,positive,even,NA,NA,NA
2,0,13,judge,4,2,2,separated,random,large,color,NA,positive,even,arrowup,1,744
2,0,14,cue,8,4,4,separated,random,large,color,#660fbd,positive,even,NA,NA,NA
2,0,14,judge,8,4,4,separated,random,large,color,NA,positive,even,arrowdown,1,848
2,0,15,cue,4,2,2,intermixed,random,large,color,#0eaaaa,positive,even,NA,NA,NA
2,0,15,judge,4,2,2,intermixed,random,large,color,NA,positive,even,arrowdown,0,181
2,0,16,cue,8,4,4,separated,random,large,color,#660fbd,positive,even,NA,NA,NA
2,0,16,judge,8,4,4,separated,random,large,color,NA,positive,even,arrowdown,1,747
2,0,17,cue,4,2,2,separated,random,large,color,#e713b2,positive,even,NA,NA,NA
2,0,17,judge,4,2,2,separated,random,large,color,NA,positive,even,arrowup,1,883
2,0,18,cue,8,4,4,separated,random,large,color,#ecb718,positive,even,NA,NA,NA
2,0,18,judge,8,4,4,separated,random,large,color,NA,positive,even,arrowdown,1,690
2,0,19,cue,12,6,6,intermixed,random,large,color,#e21212,positive,even,NA,NA,NA
2,0,19,judge,12,6,6,intermixed,random,large,color,NA,positive,even,arrowup,1,1711
2,0,20,cue,4,2,2,intermixed,random,large,color,#e713b2,positive,even,NA,NA,NA
2,0,20,judge,4,2,2,intermixed,random,large,color,NA,positive,even,arrowdown,1,1432
2,0,21,cue,8,4,4,intermixed,random,large,color,#0eaaaa,positive,even,NA,NA,NA
2,0,21,judge,8,4,4,intermixed,random,large,color,NA,positive,even,arrowup,1,797
2,0,22,cue,8,4,4,separated,random,large,color,#2b5bee,positive,even,NA,NA,NA
2,0,22,judge,8,4,4,separated,random,large,color,NA,positive,even,arrowup,1,1203
2,0,23,cue,4,2,2,intermixed,random,large,color,#2b5bee,positive,even,NA,NA,NA
2,0,23,judge,4,2,2,intermixed,random,large,color,NA,positive,even,arrowup,1,914
2,0,24,cue,12,6,6,separated,random,large,color,#e21212,positive,even,NA,NA,NA
2,0,24,judge,12,6,6,separated,random,large,color,NA,positive,even,arrowup,1,1501
2,0,25,cue,8,4,4,intermixed,random,large,color,#ecb718,positive,even,NA,NA,NA
2,0,25,judge,8,4,4,intermixed,random,large,color,NA,positive,even,arrowup,1,1369
2,0,26,cue,12,6,6,intermixed,random,large,color,#ecb718,positive,even,NA,NA,NA
2,0,26,judge,12,6,6,intermixed,random,large,color,NA,positive,even,arrowup,1,1554
2,0,27,cue,12,6,6,separated,random,large,color,#2b5bee,positive,even,NA,NA,NA
2,0,27,judge,12,6,6,separated,random,large,color,NA,positive,even,arrowup,1,1267
2,0,28,cue,4,2,2,intermixed,random,large,color,#0eaaaa,positive,even,NA,NA,NA
2,0,28,judge,4,2,2,intermixed,random,large,color,NA,positive,even,arrowdown,1,1410
2,0,29,cue,12,6,6,intermixed,random,large,color,#2b5bee,positive,even,NA,NA,NA
2,0,29,judge,12,6,6,intermixed,random,large,color,NA,positive,even,arrowup,1,1836
2,1,0,cue,12,6,6,separated,random,large,color,#0eaaaa,neutral,even,NA,NA,NA
2,1,0,judge,12,6,6,separated,random,large,color,NA,neutral,even,arrowup,1,2392
2,1,1,cue,4,2,2,separated,random,large,color,#0eaaaa,neutral,even,NA,NA,NA
2,1,1,judge,4,2,2,separated,random,large,color,NA,neutral,even,arrowdown,1,1466
2,1,2,cue,4,2,2,intermixed,random,large,color,#2b5bee,neutral,even,NA,NA,NA
2,1,2,judge,4,2,2,intermixed,random,large,color,NA,neutral,even,arrowdown,1,1256
2,1,3,cue,4,2,2,separated,random,large,color,#e21212,neutral,even,NA,NA,NA
2,1,3,judge,4,2,2,separated,random,large,color,NA,neutral,even,arrowdown,1,928
2,1,4,cue,4,2,2,separated,random,large,color,#660fbd,neutral,even,NA,NA,NA
2,1,4,judge,4,2,2,separated,random,large,color,NA,neutral,even,arrowup,1,1046
2,1,5,cue,4,2,2,intermixed,random,large,color,#0eaaaa,neutral,even,NA,NA,NA
2,1,5,judge,4,2,2,intermixed,random,large,color,NA,neutral,even,arrowdown,1,1217
2,1,6,cue,4,2,2,separated,random,large,color,#2b5bee,neutral,even,NA,NA,NA
2,1,6,judge,4,2,2,separated,random,large,color,NA,neutral,even,arrowup,1,1536
2,1,7,cue,8,4,4,separated,random,large,color,#660fbd,neutral,even,NA,NA,NA
2,1,7,judge,8,4,4,separated,random,large,color,NA,neutral,even,arrowup,1,1230
2,1,8,cue,12,6,6,separated,random,large,color,#2b5bee,neutral,even,NA,NA,NA
2,1,8,judge,12,6,6,separated,random,large,color,NA,neutral,even,arrowdown,1,3469
2,1,9,cue,8,4,4,intermixed,random,large,color,#e21212,neutral,even,NA,NA,NA
2,1,9,judge,8,4,4,intermixed,random,large,color,NA,neutral,even,arrowup,1,2976
2,1,10,cue,12,6,6,intermixed,random,large,color,#660fbd,neutral,even,NA,NA,NA
2,1,10,judge,12,6,6,intermixed,random,large,color,NA,neutral,even,arrowup,1,2629
2,1,11,cue,8,4,4,separated,random,large,color,#e713b2,neutral,even,NA,NA,NA
2,1,11,judge,8,4,4,separated,random,large,color,NA,neutral,even,arrowup,1,1389
2,1,12,cue,8,4,4,separated,random,large,color,#e713b2,neutral,even,NA,NA,NA
2,1,12,judge,8,4,4,separated,random,large,color,NA,neutral,even,arrowdown,1,1737
2,1,13,cue,4,2,2,intermixed,random,large,color,#0eaaaa,neutral,even,NA,NA,NA
2,1,13,judge,4,2,2,intermixed,random,large,color,NA,neutral,even,arrowup,1,973
2,1,14,cue,12,6,6,intermixed,random,large,color,#2b5bee,neutral,even,NA,NA,NA
2,1,14,judge,12,6,6,intermixed,random,large,color,NA,neutral,even,arrowdown,1,1620
2,1,15,cue,12,6,6,separated,random,large,color,#e21212,neutral,even,NA,NA,NA
2,1,15,judge,12,6,6,separated,random,large,color,NA,neutral,even,arrowup,1,1274
2,1,16,cue,4,2,2,intermixed,random,large,color,#e713b2,neutral,even,NA,NA,NA
2,1,16,judge,4,2,2,intermixed,random,large,color,NA,neutral,even,arrowup,1,1441
2,1,17,cue,12,6,6,intermixed,random,large,color,#0eaaaa,neutral,even,NA,NA,NA
2,1,17,judge,12,6,6,intermixed,random,large,color,NA,neutral,even,arrowup,1,2948
2,1,18,cue,12,6,6,separated,random,large,color,#e713b2,neutral,even,NA,NA,NA
2,1,18,judge,12,6,6,separated,random,large,color,NA,neutral,even,arrowdown,1,2494
2,1,19,cue,8,4,4,intermixed,random,large,color,#2b5bee,neutral,even,NA,NA,NA
2,1,19,judge,8,4,4,intermixed,random,large,color,NA,neutral,even,arrowdown,1,2728
2,1,20,cue,8,4,4,intermixed,random,large,color,#e21212,neutral,even,NA,NA,NA
2,1,20,judge,8,4,4,intermixed,random,large,color,NA,neutral,even,arrowup,1,2849
2,1,21,cue,4,2,2,separated,random,large,color,#e713b2,neutral,even,NA,NA,NA
2,1,21,judge,4,2,2,separated,random,large,color,NA,neutral,even,arrowup,1,1106
2,1,22,cue,12,6,6,intermixed,random,large,color,#0eaaaa,neutral,even,NA,NA,NA
2,1,22,judge,12,6,6,intermixed,random,large,color,NA,neutral,even,arrowup,1,3056
2,1,23,cue,8,4,4,intermixed,random,large,color,#52970c,neutral,even,NA,NA,NA
2,1,23,judge,8,4,4,intermixed,random,large,color,NA,neutral,even,arrowdown,0,1515
2,1,24,cue,8,4,4,intermixed,random,large,color,#660fbd,neutral,even,NA,NA,NA
2,1,24,judge,8,4,4,intermixed,random,large,color,NA,neutral,even,arrowup,1,2279
2,1,25,cue,4,2,2,intermixed,random,large,color,#660fbd,neutral,even,NA,NA,NA
2,1,25,judge,4,2,2,intermixed,random,large,color,NA,neutral,even,arrowdown,1,1087
2,1,26,cue,12,6,6,intermixed,random,large,color,#2b5bee,neutral,even,NA,NA,NA
2,1,26,judge,12,6,6,intermixed,random,large,color,NA,neutral,even,arrowdown,1,2994
2,1,27,cue,8,4,4,separated,random,large,color,#660fbd,neutral,even,NA,NA,NA
2,1,27,judge,8,4,4,separated,random,large,color,NA,neutral,even,arrowup,1,863
2,1,28,cue,8,4,4,separated,random,large,color,#660fbd,neutral,even,NA,NA,NA
2,1,28,judge,8,4,4,separated,random,large,color,NA,neutral,even,arrowup,1,2306
2,1,29,cue,12,6,6,separated,random,large,color,#0eaaaa,neutral,even,NA,NA,NA
2,1,29,judge,12,6,6,separated,random,large,color,NA,neutral,even,arrowdown,1,1396
2,2,0,cue,4,2,2,separated,random,large,color,#660fbd,negative,even,NA,NA,NA
2,2,0,judge,4,2,2,separated,random,large,color,NA,negative,even,arrowup,0,1377
2,2,1,cue,12,6,6,intermixed,random,large,color,#2b5bee,negative,even,NA,NA,NA
2,2,1,judge,12,6,6,intermixed,random,large,color,NA,negative,even,arrowup,1,3276
2,2,2,cue,12,6,6,intermixed,random,large,color,#2b5bee,negative,even,NA,NA,NA
2,2,2,judge,12,6,6,intermixed,random,large,color,NA,negative,even,arrowup,1,1577
2,2,3,cue,4,2,2,intermixed,random,large,color,#ecb718,negative,even,NA,NA,NA
2,2,3,judge,4,2,2,intermixed,random,large,color,NA,negative,even,arrowdown,1,696
2,2,4,cue,12,6,6,intermixed,random,large,color,#e713b2,negative,even,NA,NA,NA
2,2,4,judge,12,6,6,intermixed,random,large,color,NA,negative,even,arrowdown,1,1112
2,2,5,cue,8,4,4,intermixed,random,large,color,#660fbd,negative,even,NA,NA,NA
2,2,5,judge,8,4,4,intermixed,random,large,color,NA,negative,even,arrowdown,1,885
2,2,6,cue,12,6,6,separated,random,large,color,#0eaaaa,negative,even,NA,NA,NA
2,2,6,judge,12,6,6,separated,random,large,color,NA,negative,even,arrowup,1,1046
2,2,7,cue,12,6,6,separated,random,large,color,#660fbd,negative,even,NA,NA,NA
2,2,7,judge,12,6,6,separated,random,large,color,NA,negative,even,arrowup,1,2125
2,2,8,cue,8,4,4,intermixed,random,large,color,#e21212,negative,even,NA,NA,NA
2,2,8,judge,8,4,4,intermixed,random,large,color,NA,negative,even,arrowdown,1,2865
2,2,9,cue,4,2,2,separated,random,large,color,#2b5bee,negative,even,NA,NA,NA
2,2,9,judge,4,2,2,separated,random,large,color,NA,negative,even,arrowdown,1,1312
2,2,10,cue,8,4,4,separated,random,large,color,#0eaaaa,negative,even,NA,NA,NA
2,2,10,judge,8,4,4,separated,random,large,color,NA,negative,even,arrowdown,1,794
2,2,11,cue,4,2,2,intermixed,random,large,color,#0eaaaa,negative,even,NA,NA,NA
2,2,11,judge,4,2,2,intermixed,random,large,color,NA,negative,even,arrowdown,1,1095
2,2,12,cue,12,6,6,intermixed,random,large,color,#e21212,negative,even,NA,NA,NA
2,2,12,judge,12,6,6,intermixed,random,large,color,NA,negative,even,arrowup,1,2269
2,2,13,cue,8,4,4,separated,random,large,color,#0eaaaa,negative,even,NA,NA,NA
2,2,13,judge,8,4,4,separated,random,large,color,NA,negative,even,arrowdown,1,1181
2,2,14,cue,4,2,2,separated,random,large,color,#660fbd,negative,even,NA,NA,NA
2,2,14,judge,4,2,2,separated,random,large,color,NA,negative,even,arrowdown,1,1394
2,2,15,cue,12,6,6,separated,random,large,color,#e713b2,negative,even,NA,NA,NA
2,2,15,judge,12,6,6,separated,random,large,color,NA,negative,even,arrowup,1,1345
2,2,16,cue,4,2,2,intermixed,random,large,color,#660fbd,negative,even,NA,NA,NA
2,2,16,judge,4,2,2,intermixed,random,large,color,NA,negative,even,arrowup,1,1158
2,2,17,cue,4,2,2,separated,random,large,color,#0eaaaa,negative,even,NA,NA,NA
2,2,17,judge,4,2,2,separated,random,large,color,NA,negative,even,arrowdown,1,819
2,2,18,cue,8,4,4,intermixed,random,large,color,#e713b2,negative,even,NA,NA,NA
2,2,18,judge,8,4,4,intermixed,random,large,color,NA,negative,even,arrowdown,1,2593
2,2,19,cue,12,6,6,separated,random,large,color,#ecb718,negative,even,NA,NA,NA
2,2,19,judge,12,6,6,separated,random,large,color,NA,negative,even,arrowdown,1,3407
2,2,20,cue,8,4,4,intermixed,random,large,color,#e21212,negative,even,NA,NA,NA
2,2,20,judge,8,4,4,intermixed,random,large,color,NA,negative,even,arrowup,1,1357
2,2,21,cue,12,6,6,separated,random,large,color,#e21212,negative,even,NA,NA,NA
2,2,21,judge,12,6,6,separated,random,large,color,NA,negative,even,arrowup,1,1055
2,2,22,cue,8,4,4,separated,random,large,color,#0eaaaa,negative,even,NA,NA,NA
2,2,22,judge,8,4,4,separated,random,large,color,NA,negative,even,arrowup,1,904
2,2,23,cue,4,2,2,intermixed,random,large,color,#e713b2,negative,even,NA,NA,NA
2,2,23,judge,4,2,2,intermixed,random,large,color,NA,negative,even,arrowdown,1,1325
2,2,24,cue,12,6,6,intermixed,random,large,color,#0eaaaa,negative,even,NA,NA,NA
2,2,24,judge,12,6,6,intermixed,random,large,color,NA,negative,even,arrowdown,1,1340
2,2,25,cue,4,2,2,intermixed,random,large,color,#52970c,negative,even,NA,NA,NA
2,2,25,judge,4,2,2,intermixed,random,large,color,NA,negative,even,arrowdown,1,987
2,2,26,cue,8,4,4,intermixed,random,large,color,#0eaaaa,negative,even,NA,NA,NA
2,2,26,judge,8,4,4,intermixed,random,large,color,NA,negative,even,arrowdown,1,1543
2,2,27,cue,8,4,4,separated,random,large,color,#52970c,negative,even,NA,NA,NA
2,2,27,judge,8,4,4,separated,random,large,color,NA,negative,even,arrowup,1,1331
2,2,28,cue,8,4,4,separated,random,large,color,#660fbd,negative,even,NA,NA,NA
2,2,28,judge,8,4,4,separated,random,large,color,NA,negative,even,arrowup,1,906
2,2,29,cue,4,2,2,separated,random,large,color,#660fbd,negative,even,NA,NA,NA
2,2,29,judge,4,2,2,separated,random,large,color,NA,negative,even,arrowdown,1,1543
3,0,0,cue,8,4,4,intermixed,random,large,color,#ecb718,neutral,even,NA,NA,NA
3,0,0,judge,8,4,4,intermixed,random,large,color,NA,neutral,even,arrowdown,1,1461
3,0,1,cue,12,6,6,separated,random,large,color,#2b5bee,neutral,even,NA,NA,NA
3,0,1,judge,12,6,6,separated,random,large,color,NA,neutral,even,arrowdown,1,2448
3,0,2,cue,4,2,2,separated,random,large,color,#52970c,neutral,even,NA,NA,NA
3,0,2,judge,4,2,2,separated,random,large,color,NA,neutral,even,arrowup,1,1448
3,0,3,cue,12,6,6,intermixed,random,large,color,#2b5bee,neutral,even,NA,NA,NA
3,0,3,judge,12,6,6,intermixed,random,large,color,NA,neutral,even,arrowup,1,1892
3,0,4,cue,12,6,6,separated,random,large,color,#0eaaaa,neutral,even,NA,NA,NA
3,0,4,judge,12,6,6,separated,random,large,color,NA,neutral,even,arrowdown,1,1339
3,0,5,cue,12,6,6,intermixed,random,large,color,#660fbd,neutral,even,NA,NA,NA
3,0,5,judge,12,6,6,intermixed,random,large,color,NA,neutral,even,arrowup,1,1792
3,0,6,cue,8,4,4,separated,random,large,color,#660fbd,neutral,even,NA,NA,NA
3,0,6,judge,8,4,4,separated,random,large,color,NA,neutral,even,arrowdown,1,1668
3,0,7,cue,4,2,2,separated,random,large,color,#52970c,neutral,even,NA,NA,NA
3,0,7,judge,4,2,2,separated,random,large,color,NA,neutral,even,arrowup,1,1536
3,0,8,cue,4,2,2,intermixed,random,large,color,#e21212,neutral,even,NA,NA,NA
3,0,8,judge,4,2,2,intermixed,random,large,color,NA,neutral,even,arrowdown,1,945
3,0,9,cue,12,6,6,intermixed,random,large,color,#ecb718,neutral,even,NA,NA,NA
3,0,9,judge,12,6,6,intermixed,random,large,color,NA,neutral,even,arrowdown,1,2712
3,0,10,cue,8,4,4,separated,random,large,color,#52970c,neutral,even,NA,NA,NA
3,0,10,judge,8,4,4,separated,random,large,color,NA,neutral,even,arrowup,1,1383
3,0,11,cue,4,2,2,separated,random,large,color,#2b5bee,neutral,even,NA,NA,NA
3,0,11,judge,4,2,2,separated,random,large,color,NA,neutral,even,arrowup,1,1633
3,0,12,cue,4,2,2,intermixed,random,large,color,#e21212,neutral,even,NA,NA,NA
3,0,12,judge,4,2,2,intermixed,random,large,color,NA,neutral,even,arrowdown,1,1007
3,0,13,cue,12,6,6,intermixed,random,large,color,#e21212,neutral,even,NA,NA,NA
3,0,13,judge,12,6,6,intermixed,random,large,color,NA,neutral,even,arrowup,1,958
3,0,14,cue,8,4,4,intermixed,random,large,color,#e713b2,neutral,even,NA,NA,NA
3,0,14,judge,8,4,4,intermixed,random,large,color,NA,neutral,even,arrowdown,1,2000
3,0,15,cue,8,4,4,separated,random,large,color,#660fbd,neutral,even,NA,NA,NA
3,0,15,judge,8,4,4,separated,random,large,color,NA,neutral,even,arrowdown,1,2056
3,0,16,cue,8,4,4,intermixed,random,large,color,#e713b2,neutral,even,NA,NA,NA
3,0,16,judge,8,4,4,intermixed,random,large,color,NA,neutral,even,arrowup,1,1871
3,0,17,cue,12,6,6,separated,random,large,color,#ecb718,neutral,even,NA,NA,NA
3,0,17,judge,12,6,6,separated,random,large,color,NA,neutral,even,arrowup,1,5847
3,0,18,cue,8,4,4,separated,random,large,color,#52970c,neutral,even,NA,NA,NA
3,0,18,judge,8,4,4,separated,random,large,color,NA,neutral,even,arrowdown,1,1068
3,0,19,cue,12,6,6,separated,random,large,color,#e21212,neutral,even,NA,NA,NA
3,0,19,judge,12,6,6,separated,random,large,color,NA,neutral,even,arrowdown,1,947
3,0,20,cue,4,2,2,separated,random,large,color,#2b5bee,neutral,even,NA,NA,NA
3,0,20,judge,4,2,2,separated,random,large,color,NA,neutral,even,arrowdown,1,935
3,0,21,cue,8,4,4,intermixed,random,large,color,#2b5bee,neutral,even,NA,NA,NA
3,0,21,judge,8,4,4,intermixed,random,large,color,NA,neutral,even,arrowup,1,1875
3,0,22,cue,4,2,2,intermixed,random,large,color,#660fbd,neutral,even,NA,NA,NA
3,0,22,judge,4,2,2,intermixed,random,large,color,NA,neutral,even,arrowup,1,1404
3,0,23,cue,4,2,2,separated,random,large,color,#e21212,neutral,even,NA,NA,NA
3,0,23,judge,4,2,2,separated,random,large,color,NA,neutral,even,arrowdown,1,1057
3,0,24,cue,4,2,2,intermixed,random,large,color,#e21212,neutral,even,NA,NA,NA
3,0,24,judge,4,2,2,intermixed,random,large,color,NA,neutral,even,arrowup,1,1269
3,0,25,cue,4,2,2,intermixed,random,large,color,#e713b2,neutral,even,NA,NA,NA
3,0,25,judge,4,2,2,intermixed,random,large,color,NA,neutral,even,arrowdown,1,712
3,0,26,cue,12,6,6,intermixed,random,large,color,#660fbd,neutral,even,NA,NA,NA
3,0,26,judge,12,6,6,intermixed,random,large,color,NA,neutral,even,arrowup,1,1264
3,0,27,cue,8,4,4,intermixed,random,large,color,#52970c,neutral,even,NA,NA,NA
3,0,27,judge,8,4,4,intermixed,random,large,color,NA,neutral,even,arrowdown,1,1051
3,0,28,cue,12,6,6,separated,random,large,color,#2b5bee,neutral,even,NA,NA,NA
3,0,28,judge,12,6,6,separated,random,large,color,NA,neutral,even,arrowup,1,721
3,0,29,cue,8,4,4,separated,random,large,color,#2b5bee,neutral,even,NA,NA,NA
3,0,29,judge,8,4,4,separated,random,large,color,NA,neutral,even,arrowdown,1,2469
3,1,0,cue,4,2,2,separated,random,large,color,#2b5bee,positive,even,NA,NA,NA
3,1,0,judge,4,2,2,separated,random,large,color,NA,positive,even,arrowup,1,937
3,1,1,cue,8,4,4,separated,random,large,color,#e21212,positive,even,NA,NA,NA
3,1,1,judge,8,4,4,separated,random,large,color,NA,positive,even,arrowup,1,838
3,1,2,cue,8,4,4,intermixed,random,large,color,#660fbd,positive,even,NA,NA,NA
3,1,2,judge,8,4,4,intermixed,random,large,color,NA,positive,even,arrowdown,1,1188
3,1,3,cue,4,2,2,separated,random,large,color,#0eaaaa,positive,even,NA,NA,NA
3,1,3,judge,4,2,2,separated,random,large,color,NA,positive,even,arrowup,1,1044
3,1,4,cue,12,6,6,intermixed,random,large,color,#e21212,positive,even,NA,NA,NA
3,1,4,judge,12,6,6,intermixed,random,large,color,NA,positive,even,arrowdown,1,1402
3,1,5,cue,8,4,4,intermixed,random,large,color,#660fbd,positive,even,NA,NA,NA
3,1,5,judge,8,4,4,intermixed,random,large,color,NA,positive,even,arrowdown,1,912
3,1,6,cue,12,6,6,separated,random,large,color,#e713b2,positive,even,NA,NA,NA
3,1,6,judge,12,6,6,separated,random,large,color,NA,positive,even,arrowup,1,1806
3,1,7,cue,4,2,2,intermixed,random,large,color,#52970c,positive,even,NA,NA,NA
3,1,7,judge,4,2,2,intermixed,random,large,color,NA,positive,even,arrowup,1,875
3,1,8,cue,8,4,4,separated,random,large,color,#e21212,positive,even,NA,NA,NA
3,1,8,judge,8,4,4,separated,random,large,color,NA,positive,even,arrowdown,1,949
3,1,9,cue,8,4,4,intermixed,random,large,color,#660fbd,positive,even,NA,NA,NA
3,1,9,judge,8,4,4,intermixed,random,large,color,NA,positive,even,arrowup,1,1503
3,1,10,cue,4,2,2,intermixed,random,large,color,#e21212,positive,even,NA,NA,NA
3,1,10,judge,4,2,2,intermixed,random,large,color,NA,positive,even,arrowup,1,1115
3,1,11,cue,8,4,4,separated,random,large,color,#2b5bee,positive,even,NA,NA,NA
3,1,11,judge,8,4,4,separated,random,large,color,NA,positive,even,arrowup,1,1670
3,1,12,cue,12,6,6,separated,random,large,color,#e713b2,positive,even,NA,NA,NA
3,1,12,judge,12,6,6,separated,random,large,color,NA,positive,even,arrowdown,1,1418
3,1,13,cue,8,4,4,intermixed,random,large,color,#0eaaaa,positive,even,NA,NA,NA
3,1,13,judge,8,4,4,intermixed,random,large,color,NA,positive,even,arrowup,1,1409
3,1,14,cue,12,6,6,separated,random,large,color,#660fbd,positive,even,NA,NA,NA
3,1,14,judge,12,6,6,separated,random,large,color,NA,positive,even,arrowdown,1,1912
3,1,15,cue,12,6,6,separated,random,large,color,#ecb718,positive,even,NA,NA,NA
3,1,15,judge,12,6,6,separated,random,large,color,NA,positive,even,arrowdown,1,1213
3,1,16,cue,4,2,2,intermixed,random,large,color,#2b5bee,positive,even,NA,NA,NA
3,1,16,judge,4,2,2,intermixed,random,large,color,NA,positive,even,arrowdown,1,893
3,1,17,cue,12,6,6,intermixed,random,large,color,#ecb718,positive,even,NA,NA,NA
3,1,17,judge,12,6,6,intermixed,random,large,color,NA,positive,even,arrowup,1,1670
3,1,18,cue,8,4,4,separated,random,large,color,#660fbd,positive,even,NA,NA,NA
3,1,18,judge,8,4,4,separated,random,large,color,NA,positive,even,arrowup,1,1406
3,1,19,cue,4,2,2,intermixed,random,large,color,#2b5bee,positive,even,NA,NA,NA
3,1,19,judge,4,2,2,intermixed,random,large,color,NA,positive,even,arrowdown,1,702
3,1,20,cue,8,4,4,separated,random,large,color,#ecb718,positive,even,NA,NA,NA
3,1,20,judge,8,4,4,separated,random,large,color,NA,positive,even,arrowdown,1,1796
3,1,21,cue,4,2,2,intermixed,random,large,color,#0eaaaa,positive,even,NA,NA,NA
3,1,21,judge,4,2,2,intermixed,random,large,color,NA,positive,even,arrowup,1,859
3,1,22,cue,12,6,6,intermixed,random,large,color,#2b5bee,positive,even,NA,NA,NA
3,1,22,judge,12,6,6,intermixed,random,large,color,NA,positive,even,arrowup,1,558
3,1,23,cue,4,2,2,separated,random,large,color,#e713b2,positive,even,NA,NA,NA
3,1,23,judge,4,2,2,separated,random,large,color,NA,positive,even,arrowdown,1,911
3,1,24,cue,12,6,6,intermixed,random,large,color,#2b5bee,positive,even,NA,NA,NA
3,1,24,judge,12,6,6,intermixed,random,large,color,NA,positive,even,arrowup,1,1654
3,1,25,cue,8,4,4,intermixed,random,large,color,#52970c,positive,even,NA,NA,NA
3,1,25,judge,8,4,4,intermixed,random,large,color,NA,positive,even,arrowup,1,1136
3,1,26,cue,12,6,6,intermixed,random,large,color,#660fbd,positive,even,NA,NA,NA
3,1,26,judge,12,6,6,intermixed,random,large,color,NA,positive,even,arrowup,1,681
3,1,27,cue,12,6,6,separated,random,large,color,#e21212,positive,even,NA,NA,NA
3,1,27,judge,12,6,6,separated,random,large,color,NA,positive,even,arrowdown,1,1015
3,1,28,cue,4,2,2,separated,random,large,color,#2b5bee,positive,even,NA,NA,NA
3,1,28,judge,4,2,2,separated,random,large,color,NA,positive,even,arrowdown,1,898
3,1,29,cue,4,2,2,separated,random,large,color,#660fbd,positive,even,NA,NA,NA
3,1,29,judge,4,2,2,separated,random,large,color,NA,positive,even,arrowup,1,939
3,2,0,cue,12,6,6,intermixed,random,large,color,#0eaaaa,negative,even,NA,NA,NA
3,2,0,judge,12,6,6,intermixed,random,large,color,NA,negative,even,arrowdown,1,1016
3,2,1,cue,12,6,6,intermixed,random,large,color,#e713b2,negative,even,NA,NA,NA
3,2,1,judge,12,6,6,intermixed,random,large,color,NA,negative,even,arrowup,1,1563
3,2,2,cue,12,6,6,intermixed,random,large,color,#2b5bee,negative,even,NA,NA,NA
3,2,2,judge,12,6,6,intermixed,random,large,color,NA,negative,even,arrowdown,1,805
3,2,3,cue,8,4,4,intermixed,random,large,color,#e713b2,negative,even,NA,NA,NA
3,2,3,judge,8,4,4,intermixed,random,large,color,NA,negative,even,arrowdown,1,1333
3,2,4,cue,4,2,2,separated,random,large,color,#0eaaaa,negative,even,NA,NA,NA
3,2,4,judge,4,2,2,separated,random,large,color,NA,negative,even,arrowdown,1,872
3,2,5,cue,4,2,2,separated,random,large,color,#52970c,negative,even,NA,NA,NA
3,2,5,judge,4,2,2,separated,random,large,color,NA,negative,even,arrowdown,1,782
3,2,6,cue,8,4,4,intermixed,random,large,color,#660fbd,negative,even,NA,NA,NA
3,2,6,judge,8,4,4,intermixed,random,large,color,NA,negative,even,arrowdown,1,1160
3,2,7,cue,12,6,6,separated,random,large,color,#660fbd,negative,even,NA,NA,NA
3,2,7,judge,12,6,6,separated,random,large,color,NA,negative,even,arrowdown,1,1439
3,2,8,cue,4,2,2,intermixed,random,large,color,#e713b2,negative,even,NA,NA,NA
3,2,8,judge,4,2,2,intermixed,random,large,color,NA,negative,even,arrowdown,1,984
3,2,9,cue,8,4,4,separated,random,large,color,#ecb718,negative,even,NA,NA,NA
3,2,9,judge,8,4,4,separated,random,large,color,NA,negative,even,arrowdown,1,963
3,2,10,cue,12,6,6,intermixed,random,large,color,#2b5bee,negative,even,NA,NA,NA
3,2,10,judge,12,6,6,intermixed,random,large,color,NA,negative,even,arrowdown,1,1025
3,2,11,cue,8,4,4,intermixed,random,large,color,#0eaaaa,negative,even,NA,NA,NA
3,2,11,judge,8,4,4,intermixed,random,large,color,NA,negative,even,arrowdown,1,1002
3,2,12,cue,12,6,6,separated,random,large,color,#0eaaaa,negative,even,NA,NA,NA
3,2,12,judge,12,6,6,separated,random,large,color,NA,negative,even,arrowdown,1,895
3,2,13,cue,4,2,2,intermixed,random,large,color,#52970c,negative,even,NA,NA,NA
3,2,13,judge,4,2,2,intermixed,random,large,color,NA,negative,even,arrowdown,1,603
3,2,14,cue,12,6,6,intermixed,random,large,color,#0eaaaa,negative,even,NA,NA,NA
3,2,14,judge,12,6,6,intermixed,random,large,color,NA,negative,even,arrowdown,1,787
3,2,15,cue,4,2,2,intermixed,random,large,color,#52970c,negative,even,NA,NA,NA
3,2,15,judge,4,2,2,intermixed,random,large,color,NA,negative,even,arrowdown,1,521
3,2,16,cue,12,6,6,separated,random,large,color,#e713b2,negative,even,NA,NA,NA
3,2,16,judge,12,6,6,separated,random,large,color,NA,negative,even,arrowdown,1,1528
3,2,17,cue,4,2,2,separated,random,large,color,#2b5bee,negative,even,NA,NA,NA
3,2,17,judge,4,2,2,separated,random,large,color,NA,negative,even,arrowdown,1,1175
3,2,18,cue,8,4,4,separated,random,large,color,#660fbd,negative,even,NA,NA,NA
3,2,18,judge,8,4,4,separated,random,large,color,NA,negative,even,arrowup,1,1785
3,2,19,cue,4,2,2,separated,random,large,color,#0eaaaa,negative,even,NA,NA,NA
3,2,19,judge,4,2,2,separated,random,large,color,NA,negative,even,arrowup,1,927
3,2,20,cue,8,4,4,intermixed,random,large,color,#e713b2,negative,even,NA,NA,NA
3,2,20,judge,8,4,4,intermixed,random,large,color,NA,negative,even,arrowup,1,561
3,2,21,cue,4,2,2,intermixed,random,large,color,#0eaaaa,negative,even,NA,NA,NA
3,2,21,judge,4,2,2,intermixed,random,large,color,NA,negative,even,arrowdown,1,713
3,2,22,cue,8,4,4,separated,random,large,color,#e21212,negative,even,NA,NA,NA
3,2,22,judge,8,4,4,separated,random,large,color,NA,negative,even,arrowdown,1,946
3,2,23,cue,12,6,6,separated,random,large,color,#52970c,negative,even,NA,NA,NA
3,2,23,judge,12,6,6,separated,random,large,color,NA,negative,even,arrowdown,1,788
3,2,24,cue,8,4,4,intermixed,random,large,color,#ecb718,negative,even,NA,NA,NA
3,2,24,judge,8,4,4,intermixed,random,large,color,NA,negative,even,arrowdown,1,719
3,2,25,cue,4,2,2,intermixed,random,large,color,#2b5bee,negative,even,NA,NA,NA
3,2,25,judge,4,2,2,intermixed,random,large,color,NA,negative,even,arrowup,1,637
3,2,26,cue,4,2,2,separated,random,large,color,#0eaaaa,negative,even,NA,NA,NA
3,2,26,judge,4,2,2,separated,random,large,color,NA,negative,even,arrowdown,1,744
3,2,27,cue,8,4,4,separated,random,large,color,#e713b2,negative,even,NA,NA,NA
3,2,27,judge,8,4,4,separated,random,large,color,NA,negative,even,arrowup,1,1573
3,2,28,cue,8,4,4,separated,random,large,color,#2b5bee,negative,even,NA,NA,NA
3,2,28,judge,8,4,4,separated,random,large,color,NA,negative,even,arrowdown,1,1321
3,2,29,cue,12,6,6,separated,random,large,color,#660fbd,negative,even,NA,NA,NA
3,2,29,judge,12,6,6,separated,random,large,color,NA,negative,even,arrowup,1,690
4,0,0,cue,12,6,6,intermixed,random,large,color,#660fbd,neutral,even,NA,NA,NA
4,0,0,judge,12,6,6,intermixed,random,large,color,NA,neutral,even,arrowdown,1,763
4,0,1,cue,4,2,2,separated,random,large,color,#660fbd,neutral,even,NA,NA,NA
4,0,1,judge,4,2,2,separated,random,large,color,NA,neutral,even,arrowup,1,854
4,0,2,cue,8,4,4,intermixed,random,large,color,#0eaaaa,neutral,even,NA,NA,NA
4,0,2,judge,8,4,4,intermixed,random,large,color,NA,neutral,even,arrowup,1,1195
4,0,3,cue,8,4,4,intermixed,random,large,color,#660fbd,neutral,even,NA,NA,NA
4,0,3,judge,8,4,4,intermixed,random,large,color,NA,neutral,even,arrowdown,1,2090
4,0,4,cue,4,2,2,separated,random,large,color,#e21212,neutral,even,NA,NA,NA
4,0,4,judge,4,2,2,separated,random,large,color,NA,neutral,even,arrowdown,1,1930
4,0,5,cue,4,2,2,intermixed,random,large,color,#660fbd,neutral,even,NA,NA,NA
4,0,5,judge,4,2,2,intermixed,random,large,color,NA,neutral,even,arrowdown,1,876
4,0,6,cue,12,6,6,intermixed,random,large,color,#ecb718,neutral,even,NA,NA,NA
4,0,6,judge,12,6,6,intermixed,random,large,color,NA,neutral,even,arrowup,1,1961
4,0,7,cue,12,6,6,separated,random,large,color,#52970c,neutral,even,NA,NA,NA
4,0,7,judge,12,6,6,separated,random,large,color,NA,neutral,even,arrowdown,1,2903
4,0,8,cue,12,6,6,separated,random,large,color,#ecb718,neutral,even,NA,NA,NA
4,0,8,judge,12,6,6,separated,random,large,color,NA,neutral,even,arrowdown,1,1023
4,0,9,cue,8,4,4,separated,random,large,color,#660fbd,neutral,even,NA,NA,NA
4,0,9,judge,8,4,4,separated,random,large,color,NA,neutral,even,arrowdown,1,1669
4,0,10,cue,4,2,2,intermixed,random,large,color,#2b5bee,neutral,even,NA,NA,NA
4,0,10,judge,4,2,2,intermixed,random,large,color,NA,neutral,even,arrowup,1,743
4,0,11,cue,8,4,4,intermixed,random,large,color,#e21212,neutral,even,NA,NA,NA
4,0,11,judge,8,4,4,intermixed,random,large,color,NA,neutral,even,arrowdown,1,2008
4,0,12,cue,8,4,4,separated,random,large,color,#e21212,neutral,even,NA,NA,NA
4,0,12,judge,8,4,4,separated,random,large,color,NA,neutral,even,arrowdown,1,981
4,0,13,cue,4,2,2,intermixed,random,large,color,#2b5bee,neutral,even,NA,NA,NA
4,0,13,judge,4,2,2,intermixed,random,large,color,NA,neutral,even,arrowdown,1,731
4,0,14,cue,12,6,6,intermixed,random,large,color,#ecb718,neutral,even,NA,NA,NA
4,0,14,judge,12,6,6,intermixed,random,large,color,NA,neutral,even,arrowdown,1,658
4,0,15,cue,12,6,6,separated,random,large,color,#e21212,neutral,even,NA,NA,NA
4,0,15,judge,12,6,6,separated,random,large,color,NA,neutral,even,arrowdown,1,944
4,0,16,cue,4,2,2,separated,random,large,color,#ecb718,neutral,even,NA,NA,NA
4,0,16,judge,4,2,2,separated,random,large,color,NA,neutral,even,arrowdown,1,772
4,0,17,cue,4,2,2,separated,random,large,color,#ecb718,neutral,even,NA,NA,NA
4,0,17,judge,4,2,2,separated,random,large,color,NA,neutral,even,arrowup,1,705
4,0,18,cue,12,6,6,intermixed,random,large,color,#0eaaaa,neutral,even,NA,NA,NA
4,0,18,judge,12,6,6,intermixed,random,large,color,NA,neutral,even,arrowup,1,2695
4,0,19,cue,8,4,4,separated,random,large,color,#2b5bee,neutral,even,NA,NA,NA
4,0,19,judge,8,4,4,separated,random,large,color,NA,neutral,even,arrowup,1,506
4,0,20,cue,8,4,4,separated,random,large,color,#e21212,neutral,even,NA,NA,NA
4,0,20,judge,8,4,4,separated,random,large,color,NA,neutral,even,arrowup,1,1768
4,0,21,cue,8,4,4,separated,random,large,color,#660fbd,neutral,even,NA,NA,NA
4,0,21,judge,8,4,4,separated,random,large,color,NA,neutral,even,arrowdown,1,689
4,0,22,cue,4,2,2,intermixed,random,large,color,#e713b2,neutral,even,NA,NA,NA
4,0,22,judge,4,2,2,intermixed,random,large,color,NA,neutral,even,arrowdown,1,738
4,0,23,cue,12,6,6,separated,random,large,color,#e21212,neutral,even,NA,NA,NA
4,0,23,judge,12,6,6,separated,random,large,color,NA,neutral,even,arrowup,1,1709
4,0,24,cue,8,4,4,intermixed,random,large,color,#e21212,neutral,even,NA,NA,NA
4,0,24,judge,8,4,4,intermixed,random,large,color,NA,neutral,even,arrowdown,1,1284
4,0,25,cue,8,4,4,intermixed,random,large,color,#2b5bee,neutral,even,NA,NA,NA
4,0,25,judge,8,4,4,intermixed,random,large,color,NA,neutral,even,arrowup,1,820
4,0,26,cue,4,2,2,separated,random,large,color,#52970c,neutral,even,NA,NA,NA
4,0,26,judge,4,2,2,separated,random,large,color,NA,neutral,even,arrowup,1,969
4,0,27,cue,12,6,6,separated,random,large,color,#e21212,neutral,even,NA,NA,NA
4,0,27,judge,12,6,6,separated,random,large,color,NA,neutral,even,arrowdown,1,1880
4,0,28,cue,12,6,6,intermixed,random,large,color,#660fbd,neutral,even,NA,NA,NA
4,0,28,judge,12,6,6,intermixed,random,large,color,NA,neutral,even,arrowdown,1,1298
4,0,29,cue,4,2,2,intermixed,random,large,color,#2b5bee,neutral,even,NA,NA,NA
4,0,29,judge,4,2,2,intermixed,random,large,color,NA,neutral,even,arrowup,1,554
4,1,0,cue,8,4,4,intermixed,random,large,color,#52970c,positive,even,NA,NA,NA
4,1,0,judge,8,4,4,intermixed,random,large,color,NA,positive,even,arrowup,1,1226
4,1,1,cue,8,4,4,separated,random,large,color,#52970c,positive,even,NA,NA,NA
4,1,1,judge,8,4,4,separated,random,large,color,NA,positive,even,arrowup,1,992
4,1,2,cue,8,4,4,separated,random,large,color,#ecb718,positive,even,NA,NA,NA
4,1,2,judge,8,4,4,separated,random,large,color,NA,positive,even,arrowup,1,890
4,1,3,cue,8,4,4,separated,random,large,color,#e21212,positive,even,NA,NA,NA
4,1,3,judge,8,4,4,separated,random,large,color,NA,positive,even,arrowdown,1,905
4,1,4,cue,8,4,4,intermixed,random,large,color,#660fbd,positive,even,NA,NA,NA
4,1,4,judge,8,4,4,intermixed,random,large,color,NA,positive,even,arrowup,1,854
4,1,5,cue,12,6,6,separated,random,large,color,#e713b2,positive,even,NA,NA,NA
4,1,5,judge,12,6,6,separated,random,large,color,NA,positive,even,arrowup,1,740
4,1,6,cue,12,6,6,separated,random,large,color,#e713b2,positive,even,NA,NA,NA
4,1,6,judge,12,6,6,separated,random,large,color,NA,positive,even,arrowdown,1,666
4,1,7,cue,8,4,4,intermixed,random,large,color,#ecb718,positive,even,NA,NA,NA
4,1,7,judge,8,4,4,intermixed,random,large,color,NA,positive,even,arrowdown,1,708
4,1,8,cue,4,2,2,separated,random,large,color,#e21212,positive,even,NA,NA,NA
4,1,8,judge,4,2,2,separated,random,large,color,NA,positive,even,arrowup,1,627
4,1,9,cue,12,6,6,separated,random,large,color,#52970c,positive,even,NA,NA,NA
4,1,9,judge,12,6,6,separated,random,large,color,NA,positive,even,arrowup,1,1026
4,1,10,cue,12,6,6,separated,random,large,color,#e21212,positive,even,NA,NA,NA
4,1,10,judge,12,6,6,separated,random,large,color,NA,positive,even,arrowdown,1,862
4,1,11,cue,4,2,2,intermixed,random,large,color,#2b5bee,positive,even,NA,NA,NA
4,1,11,judge,4,2,2,intermixed,random,large,color,NA,positive,even,arrowdown,1,666
4,1,12,cue,4,2,2,separated,random,large,color,#52970c,positive,even,NA,NA,NA
4,1,12,judge,4,2,2,separated,random,large,color,NA,positive,even,arrowup,1,542
4,1,13,cue,4,2,2,separated,random,large,color,#2b5bee,positive,even,NA,NA,NA
4,1,13,judge,4,2,2,separated,random,large,color,NA,positive,even,arrowup,1,716
4,1,14,cue,12,6,6,intermixed,random,large,color,#e713b2,positive,even,NA,NA,NA
4,1,14,judge,12,6,6,intermixed,random,large,color,NA,positive,even,arrowup,1,981
4,1,15,cue,12,6,6,intermixed,random,large,color,#e21212,positive,even,NA,NA,NA
4,1,15,judge,12,6,6,intermixed,random,large,color,NA,positive,even,arrowup,1,560
4,1,16,cue,4,2,2,intermixed,random,large,color,#2b5bee,positive,even,NA,NA,NA
4,1,16,judge,4,2,2,intermixed,random,large,color,NA,positive,even,arrowup,1,775
4,1,17,cue,8,4,4,separated,random,large,color,#660fbd,positive,even,NA,NA,NA
4,1,17,judge,8,4,4,separated,random,large,color,NA,positive,even,arrowdown,1,582
4,1,18,cue,12,6,6,intermixed,random,large,color,#52970c,positive,even,NA,NA,NA
4,1,18,judge,12,6,6,intermixed,random,large,color,NA,positive,even,arrowup,1,2023
4,1,19,cue,4,2,2,intermixed,random,large,color,#0eaaaa,positive,even,NA,NA,NA
4,1,19,judge,4,2,2,intermixed,random,large,color,NA,positive,even,arrowdown,1,699
4,1,20,cue,4,2,2,separated,random,large,color,#ecb718,positive,even,NA,NA,NA
4,1,20,judge,4,2,2,separated,random,large,color,NA,positive,even,arrowup,1,771
4,1,21,cue,12,6,6,intermixed,random,large,color,#660fbd,positive,even,NA,NA,NA
4,1,21,judge,12,6,6,intermixed,random,large,color,NA,positive,even,arrowup,1,796
4,1,22,cue,8,4,4,intermixed,random,large,color,#2b5bee,positive,even,NA,NA,NA
4,1,22,judge,8,4,4,intermixed,random,large,color,NA,positive,even,arrowdown,1,1536
4,1,23,cue,12,6,6,separated,random,large,color,#e713b2,positive,even,NA,NA,NA
4,1,23,judge,12,6,6,separated,random,large,color,NA,positive,even,arrowdown,1,762
4,1,24,cue,8,4,4,intermixed,random,large,color,#e21212,positive,even,NA,NA,NA
4,1,24,judge,8,4,4,intermixed,random,large,color,NA,positive,even,arrowup,1,769
4,1,25,cue,4,2,2,intermixed,random,large,color,#e713b2,positive,even,NA,NA,NA
4,1,25,judge,4,2,2,intermixed,random,large,color,NA,positive,even,arrowup,1,894
4,1,26,cue,12,6,6,intermixed,random,large,color,#e713b2,positive,even,NA,NA,NA
4,1,26,judge,12,6,6,intermixed,random,large,color,NA,positive,even,arrowup,1,623
4,1,27,cue,4,2,2,intermixed,random,large,color,#e21212,positive,even,NA,NA,NA
4,1,27,judge,4,2,2,intermixed,random,large,color,NA,positive,even,arrowdown,1,704
4,1,28,cue,8,4,4,separated,random,large,color,#52970c,positive,even,NA,NA,NA
4,1,28,judge,8,4,4,separated,random,large,color,NA,positive,even,arrowup,1,868
4,1,29,cue,4,2,2,separated,random,large,color,#e713b2,positive,even,NA,NA,NA
4,1,29,judge,4,2,2,separated,random,large,color,NA,positive,even,arrowup,1,771
4,2,0,cue,12,6,6,intermixed,random,large,color,#2b5bee,negative,even,NA,NA,NA
4,2,0,judge,12,6,6,intermixed,random,large,color,NA,negative,even,arrowdown,1,853
4,2,1,cue,8,4,4,separated,random,large,color,#e21212,negative,even,NA,NA,NA
4,2,1,judge,8,4,4,separated,random,large,color,NA,negative,even,arrowup,1,1704
4,2,2,cue,8,4,4,separated,random,large,color,#2b5bee,negative,even,NA,NA,NA
4,2,2,judge,8,4,4,separated,random,large,color,NA,negative,even,arrowup,1,1351
4,2,3,cue,4,2,2,separated,random,large,color,#e713b2,negative,even,NA,NA,NA
4,2,3,judge,4,2,2,separated,random,large,color,NA,negative,even,arrowdown,1,1051
4,2,4,cue,8,4,4,separated,random,large,color,#2b5bee,negative,even,NA,NA,NA
4,2,4,judge,8,4,4,separated,random,large,color,NA,negative,even,arrowup,1,839
4,2,5,cue,4,2,2,intermixed,random,large,color,#660fbd,negative,even,NA,NA,NA
4,2,5,judge,4,2,2,intermixed,random,large,color,NA,negative,even,arrowdown,1,1120
4,2,6,cue,12,6,6,separated,random,large,color,#e21212,negative,even,NA,NA,NA
4,2,6,judge,12,6,6,separated,random,large,color,NA,negative,even,arrowup,1,1840
4,2,7,cue,4,2,2,intermixed,random,large,color,#2b5bee,negative,even,NA,NA,NA
4,2,7,judge,4,2,2,intermixed,random,large,color,NA,negative,even,arrowdown,1,786
4,2,8,cue,12,6,6,separated,random,large,color,#660fbd,negative,even,NA,NA,NA
4,2,8,judge,12,6,6,separated,random,large,color,NA,negative,even,arrowup,1,1695
4,2,9,cue,4,2,2,separated,random,large,color,#e21212,negative,even,NA,NA,NA
4,2,9,judge,4,2,2,separated,random,large,color,NA,negative,even,arrowdown,1,574
4,2,10,cue,12,6,6,intermixed,random,large,color,#52970c,negative,even,NA,NA,NA
4,2,10,judge,12,6,6,intermixed,random,large,color,NA,negative,even,arrowup,1,1735
4,2,11,cue,8,4,4,intermixed,random,large,color,#52970c,negative,even,NA,NA,NA
4,2,11,judge,8,4,4,intermixed,random,large,color,NA,negative,even,arrowup,1,870
4,2,12,cue,4,2,2,intermixed,random,large,color,#e21212,negative,even,NA,NA,NA
4,2,12,judge,4,2,2,intermixed,random,large,color,NA,negative,even,arrowdown,1,898
4,2,13,cue,12,6,6,intermixed,random,large,color,#2b5bee,negative,even,NA,NA,NA
4,2,13,judge,12,6,6,intermixed,random,large,color,NA,negative,even,arrowup,1,896
4,2,14,cue,8,4,4,separated,random,large,color,#e713b2,negative,even,NA,NA,NA
4,2,14,judge,8,4,4,separated,random,large,color,NA,negative,even,arrowup,1,860
4,2,15,cue,8,4,4,intermixed,random,large,color,#52970c,negative,even,NA,NA,NA
4,2,15,judge,8,4,4,intermixed,random,large,color,NA,negative,even,arrowdown,1,786
4,2,16,cue,4,2,2,separated,random,large,color,#e21212,negative,even,NA,NA,NA
4,2,16,judge,4,2,2,separated,random,large,color,NA,negative,even,arrowup,1,1428
4,2,17,cue,4,2,2,intermixed,random,large,color,#ecb718,negative,even,NA,NA,NA
4,2,17,judge,4,2,2,intermixed,random,large,color,NA,negative,even,arrowup,1,545
4,2,18,cue,8,4,4,intermixed,random,large,color,#660fbd,negative,even,NA,NA,NA
4,2,18,judge,8,4,4,intermixed,random,large,color,NA,negative,even,arrowup,1,1241
4,2,19,cue,12,6,6,intermixed,random,large,color,#e21212,negative,even,NA,NA,NA
4,2,19,judge,12,6,6,intermixed,random,large,color,NA,negative,even,arrowup,1,2190
4,2,20,cue,4,2,2,separated,random,large,color,#e21212,negative,even,NA,NA,NA
4,2,20,judge,4,2,2,separated,random,large,color,NA,negative,even,arrowup,1,795
4,2,21,cue,12,6,6,separated,random,large,color,#e713b2,negative,even,NA,NA,NA
4,2,21,judge,12,6,6,separated,random,large,color,NA,negative,even,arrowup,1,1175
4,2,22,cue,8,4,4,intermixed,random,large,color,#660fbd,negative,even,NA,NA,NA
4,2,22,judge,8,4,4,intermixed,random,large,color,NA,negative,even,arrowdown,1,1477
4,2,23,cue,12,6,6,separated,random,large,color,#e21212,negative,even,NA,NA,NA
4,2,23,judge,12,6,6,separated,random,large,color,NA,negative,even,arrowdown,1,1516
4,2,24,cue,8,4,4,intermixed,random,large,color,#e713b2,negative,even,NA,NA,NA
4,2,24,judge,8,4,4,intermixed,random,large,color,NA,negative,even,arrowdown,1,957
4,2,25,cue,4,2,2,separated,random,large,color,#2b5bee,negative,even,NA,NA,NA
4,2,25,judge,4,2,2,separated,random,large,color,NA,negative,even,arrowup,1,761
4,2,26,cue,8,4,4,separated,random,large,color,#660fbd,negative,even,NA,NA,NA
4,2,26,judge,8,4,4,separated,random,large,color,NA,negative,even,arrowdown,1,624
4,2,27,cue,12,6,6,intermixed,random,large,color,#660fbd,negative,even,NA,NA,NA
4,2,27,judge,12,6,6,intermixed,random,large,color,NA,negative,even,arrowup,1,1649
4,2,28,cue,4,2,2,intermixed,random,large,color,#52970c,negative,even,NA,NA,NA
4,2,28,judge,4,2,2,intermixed,random,large,color,NA,negative,even,arrowup,1,1368
4,2,29,cue,12,6,6,separated,random,large,color,#0eaaaa,negative,even,NA,NA,NA
4,2,29,judge,12,6,6,separated,random,large,color,NA,negative,even,arrowdown,1,1193
5,0,0,cue,12,6,6,intermixed,random,large,color,#e21212,neutral,even,NA,NA,NA
5,0,0,judge,12,6,6,intermixed,random,large,color,NA,neutral,even,arrowup,1,797
5,0,1,cue,8,4,4,intermixed,random,large,color,#660fbd,neutral,even,NA,NA,NA
5,0,1,judge,8,4,4,intermixed,random,large,color,NA,neutral,even,arrowup,0,630
5,0,2,cue,4,2,2,separated,random,large,color,#0eaaaa,neutral,even,NA,NA,NA
5,0,2,judge,4,2,2,separated,random,large,color,NA,neutral,even,arrowdown,1,1287
5,0,3,cue,4,2,2,intermixed,random,large,color,#660fbd,neutral,even,NA,NA,NA
5,0,3,judge,4,2,2,intermixed,random,large,color,NA,neutral,even,arrowdown,1,1736
5,0,4,cue,4,2,2,separated,random,large,color,#660fbd,neutral,even,NA,NA,NA
5,0,4,judge,4,2,2,separated,random,large,color,NA,neutral,even,arrowup,1,968
5,0,5,cue,12,6,6,separated,random,large,color,#e713b2,neutral,even,NA,NA,NA
5,0,5,judge,12,6,6,separated,random,large,color,NA,neutral,even,arrowdown,1,2334
5,0,6,cue,12,6,6,intermixed,random,large,color,#0eaaaa,neutral,even,NA,NA,NA
5,0,6,judge,12,6,6,intermixed,random,large,color,NA,neutral,even,arrowup,1,1695
5,0,7,cue,4,2,2,separated,random,large,color,#52970c,neutral,even,NA,NA,NA
5,0,7,judge,4,2,2,separated,random,large,color,NA,neutral,even,arrowup,1,939
5,0,8,cue,12,6,6,intermixed,random,large,color,#ecb718,neutral,even,NA,NA,NA
5,0,8,judge,12,6,6,intermixed,random,large,color,NA,neutral,even,arrowup,1,6636
5,0,9,cue,8,4,4,separated,random,large,color,#660fbd,neutral,even,NA,NA,NA
5,0,9,judge,8,4,4,separated,random,large,color,NA,neutral,even,arrowdown,1,2394
5,0,10,cue,12,6,6,separated,random,large,color,#ecb718,neutral,even,NA,NA,NA
5,0,10,judge,12,6,6,separated,random,large,color,NA,neutral,even,arrowup,1,4650
5,0,11,cue,8,4,4,intermixed,random,large,color,#2b5bee,neutral,even,NA,NA,NA
5,0,11,judge,8,4,4,intermixed,random,large,color,NA,neutral,even,arrowdown,1,1735
5,0,12,cue,12,6,6,separated,random,large,color,#660fbd,neutral,even,NA,NA,NA
5,0,12,judge,12,6,6,separated,random,large,color,NA,neutral,even,arrowup,1,671
5,0,13,cue,4,2,2,separated,random,large,color,#e713b2,neutral,even,NA,NA,NA
5,0,13,judge,4,2,2,separated,random,large,color,NA,neutral,even,arrowdown,1,1135
5,0,14,cue,8,4,4,separated,random,large,color,#0eaaaa,neutral,even,NA,NA,NA
5,0,14,judge,8,4,4,separated,random,large,color,NA,neutral,even,arrowdown,1,961
5,0,15,cue,4,2,2,intermixed,random,large,color,#e713b2,neutral,even,NA,NA,NA
5,0,15,judge,4,2,2,intermixed,random,large,color,NA,neutral,even,arrowdown,1,1071
5,0,16,cue,12,6,6,intermixed,random,large,color,#2b5bee,neutral,even,NA,NA,NA
5,0,16,judge,12,6,6,intermixed,random,large,color,NA,neutral,even,arrowup,1,3130
5,0,17,cue,4,2,2,intermixed,random,large,color,#660fbd,neutral,even,NA,NA,NA
5,0,17,judge,4,2,2,intermixed,random,large,color,NA,neutral,even,arrowdown,1,1096
5,0,18,cue,12,6,6,intermixed,random,large,color,#ecb718,neutral,even,NA,NA,NA
5,0,18,judge,12,6,6,intermixed,random,large,color,NA,neutral,even,arrowup,1,1152
5,0,19,cue,8,4,4,intermixed,random,large,color,#660fbd,neutral,even,NA,NA,NA
5,0,19,judge,8,4,4,intermixed,random,large,color,NA,neutral,even,arrowup,1,2013
5,0,20,cue,8,4,4,separated,random,large,color,#52970c,neutral,even,NA,NA,NA
5,0,20,judge,8,4,4,separated,random,large,color,NA,neutral,even,arrowdown,1,2772
5,0,21,cue,4,2,2,separated,random,large,color,#ecb718,neutral,even,NA,NA,NA
5,0,21,judge,4,2,2,separated,random,large,color,NA,neutral,even,arrowdown,1,1049
5,0,22,cue,12,6,6,separated,random,large,color,#e713b2,neutral,even,NA,NA,NA
5,0,22,judge,12,6,6,separated,random,large,color,NA,neutral,even,arrowdown,1,874
5,0,23,cue,4,2,2,intermixed,random,large,color,#e713b2,neutral,even,NA,NA,NA
5,0,23,judge,4,2,2,intermixed,random,large,color,NA,neutral,even,arrowup,1,945
5,0,24,cue,8,4,4,separated,random,large,color,#e21212,neutral,even,NA,NA,NA
5,0,24,judge,8,4,4,separated,random,large,color,NA,neutral,even,arrowup,1,2215
5,0,25,cue,8,4,4,separated,random,large,color,#0eaaaa,neutral,even,NA,NA,NA
5,0,25,judge,8,4,4,separated,random,large,color,NA,neutral,even,arrowdown,1,1253
5,0,26,cue,8,4,4,intermixed,random,large,color,#660fbd,neutral,even,NA,NA,NA
5,0,26,judge,8,4,4,intermixed,random,large,color,NA,neutral,even,arrowdown,1,2816
5,0,27,cue,8,4,4,intermixed,random,large,color,#ecb718,neutral,even,NA,NA,NA
5,0,27,judge,8,4,4,intermixed,random,large,color,NA,neutral,even,arrowup,1,1071
5,0,28,cue,12,6,6,separated,random,large,color,#52970c,neutral,even,NA,NA,NA
5,0,28,judge,12,6,6,separated,random,large,color,NA,neutral,even,arrowdown,1,6158
5,0,29,cue,4,2,2,intermixed,random,large,color,#52970c,neutral,even,NA,NA,NA
5,0,29,judge,4,2,2,intermixed,random,large,color,NA,neutral,even,arrowup,0,1053
5,1,0,cue,12,6,6,separated,random,large,color,#e21212,negative,even,NA,NA,NA
5,1,0,judge,12,6,6,separated,random,large,color,NA,negative,even,arrowup,1,1629
5,1,1,cue,4,2,2,intermixed,random,large,color,#e713b2,negative,even,NA,NA,NA
5,1,1,judge,4,2,2,intermixed,random,large,color,NA,negative,even,arrowup,1,1064
5,1,2,cue,8,4,4,separated,random,large,color,#ecb718,negative,even,NA,NA,NA
5,1,2,judge,8,4,4,separated,random,large,color,NA,negative,even,arrowdown,1,1416
5,1,3,cue,8,4,4,separated,random,large,color,#2b5bee,negative,even,NA,NA,NA
5,1,3,judge,8,4,4,separated,random,large,color,NA,negative,even,arrowdown,1,1434
5,1,4,cue,8,4,4,intermixed,random,large,color,#660fbd,negative,even,NA,NA,NA
5,1,4,judge,8,4,4,intermixed,random,large,color,NA,negative,even,arrowup,1,1006
5,1,5,cue,8,4,4,intermixed,random,large,color,#e713b2,negative,even,NA,NA,NA
5,1,5,judge,8,4,4,intermixed,random,large,color,NA,negative,even,arrowdown,1,1169
5,1,6,cue,12,6,6,separated,random,large,color,#e21212,negative,even,NA,NA,NA
5,1,6,judge,12,6,6,separated,random,large,color,NA,negative,even,arrowdown,1,1132
5,1,7,cue,4,2,2,separated,random,large,color,#660fbd,negative,even,NA,NA,NA
5,1,7,judge,4,2,2,separated,random,large,color,NA,negative,even,arrowup,1,822
5,1,8,cue,12,6,6,intermixed,random,large,color,#ecb718,negative,even,NA,NA,NA
5,1,8,judge,12,6,6,intermixed,random,large,color,NA,negative,even,arrowdown,1,1819
5,1,9,cue,8,4,4,intermixed,random,large,color,#660fbd,negative,even,NA,NA,NA
5,1,9,judge,8,4,4,intermixed,random,large,color,NA,negative,even,arrowup,1,836
5,1,10,cue,4,2,2,separated,random,large,color,#ecb718,negative,even,NA,NA,NA
5,1,10,judge,4,2,2,separated,random,large,color,NA,negative,even,arrowup,1,494
5,1,11,cue,8,4,4,separated,random,large,color,#0eaaaa,negative,even,NA,NA,NA
5,1,11,judge,8,4,4,separated,random,large,color,NA,negative,even,arrowdown,1,903
5,1,12,cue,12,6,6,intermixed,random,large,color,#e713b2,negative,even,NA,NA,NA
5,1,12,judge,12,6,6,intermixed,random,large,color,NA,negative,even,arrowdown,1,1577
5,1,13,cue,12,6,6,intermixed,random,large,color,#ecb718,negative,even,NA,NA,NA
5,1,13,judge,12,6,6,intermixed,random,large,color,NA,negative,even,arrowup,1,1797
5,1,14,cue,4,2,2,separated,random,large,color,#660fbd,negative,even,NA,NA,NA
5,1,14,judge,4,2,2,separated,random,large,color,NA,negative,even,arrowup,1,2142
5,1,15,cue,12,6,6,intermixed,random,large,color,#e21212,negative,even,NA,NA,NA
5,1,15,judge,12,6,6,intermixed,random,large,color,NA,negative,even,arrowdown,1,1804
5,1,16,cue,12,6,6,separated,random,large,color,#0eaaaa,negative,even,NA,NA,NA
5,1,16,judge,12,6,6,separated,random,large,color,NA,negative,even,arrowup,1,1478
5,1,17,cue,4,2,2,intermixed,random,large,color,#52970c,negative,even,NA,NA,NA
5,1,17,judge,4,2,2,intermixed,random,large,color,NA,negative,even,arrowdown,1,973
5,1,18,cue,12,6,6,separated,random,large,color,#ecb718,negative,even,NA,NA,NA
5,1,18,judge,12,6,6,separated,random,large,color,NA,negative,even,arrowup,1,883
5,1,19,cue,4,2,2,intermixed,random,large,color,#e713b2,negative,even,NA,NA,NA
5,1,19,judge,4,2,2,intermixed,random,large,color,NA,negative,even,arrowdown,1,1063
5,1,20,cue,4,2,2,intermixed,random,large,color,#e21212,negative,even,NA,NA,NA
5,1,20,judge,4,2,2,intermixed,random,large,color,NA,negative,even,arrowdown,1,731
5,1,21,cue,4,2,2,intermixed,random,large,color,#ecb718,negative,even,NA,NA,NA
5,1,21,judge,4,2,2,intermixed,random,large,color,NA,negative,even,arrowdown,1,858
5,1,22,cue,4,2,2,separated,random,large,color,#52970c,negative,even,NA,NA,NA
5,1,22,judge,4,2,2,separated,random,large,color,NA,negative,even,arrowup,1,1124
5,1,23,cue,8,4,4,intermixed,random,large,color,#2b5bee,negative,even,NA,NA,NA
5,1,23,judge,8,4,4,intermixed,random,large,color,NA,negative,even,arrowup,1,1441
5,1,24,cue,8,4,4,separated,random,large,color,#e713b2,negative,even,NA,NA,NA
5,1,24,judge,8,4,4,separated,random,large,color,NA,negative,even,arrowdown,1,741
5,1,25,cue,12,6,6,intermixed,random,large,color,#0eaaaa,negative,even,NA,NA,NA
5,1,25,judge,12,6,6,intermixed,random,large,color,NA,negative,even,arrowdown,1,1399
5,1,26,cue,8,4,4,separated,random,large,color,#2b5bee,negative,even,NA,NA,NA
5,1,26,judge,8,4,4,separated,random,large,color,NA,negative,even,arrowdown,1,1666
5,1,27,cue,8,4,4,intermixed,random,large,color,#e21212,negative,even,NA,NA,NA
5,1,27,judge,8,4,4,intermixed,random,large,color,NA,negative,even,arrowdown,1,1110
5,1,28,cue,12,6,6,separated,random,large,color,#2b5bee,negative,even,NA,NA,NA
5,1,28,judge,12,6,6,separated,random,large,color,NA,negative,even,arrowdown,1,1289
5,1,29,cue,4,2,2,separated,random,large,color,#e713b2,negative,even,NA,NA,NA
5,1,29,judge,4,2,2,separated,random,large,color,NA,negative,even,arrowup,1,879
5,2,0,cue,12,6,6,intermixed,random,large,color,#660fbd,positive,even,NA,NA,NA
5,2,0,judge,12,6,6,intermixed,random,large,color,NA,positive,even,arrowdown,1,812
5,2,1,cue,4,2,2,intermixed,random,large,color,#52970c,positive,even,NA,NA,NA
5,2,1,judge,4,2,2,intermixed,random,large,color,NA,positive,even,arrowdown,1,910
5,2,2,cue,8,4,4,intermixed,random,large,color,#2b5bee,positive,even,NA,NA,NA
5,2,2,judge,8,4,4,intermixed,random,large,color,NA,positive,even,arrowdown,1,865
5,2,3,cue,4,2,2,intermixed,random,large,color,#2b5bee,positive,even,NA,NA,NA
5,2,3,judge,4,2,2,intermixed,random,large,color,NA,positive,even,arrowup,1,665
5,2,4,cue,4,2,2,separated,random,large,color,#2b5bee,positive,even,NA,NA,NA
5,2,4,judge,4,2,2,separated,random,large,color,NA,positive,even,arrowup,1,738
5,2,5,cue,12,6,6,separated,random,large,color,#660fbd,positive,even,NA,NA,NA
5,2,5,judge,12,6,6,separated,random,large,color,NA,positive,even,arrowup,1,1153
5,2,6,cue,4,2,2,separated,random,large,color,#ecb718,positive,even,NA,NA,NA
5,2,6,judge,4,2,2,separated,random,large,color,NA,positive,even,arrowdown,1,650
5,2,7,cue,8,4,4,intermixed,random,large,color,#e21212,positive,even,NA,NA,NA
5,2,7,judge,8,4,4,intermixed,random,large,color,NA,positive,even,arrowup,1,634
5,2,8,cue,8,4,4,intermixed,random,large,color,#52970c,positive,even,NA,NA,NA
5,2,8,judge,8,4,4,intermixed,random,large,color,NA,positive,even,arrowdown,1,1343
5,2,9,cue,4,2,2,separated,random,large,color,#660fbd,positive,even,NA,NA,NA
5,2,9,judge,4,2,2,separated,random,large,color,NA,positive,even,arrowdown,1,749
5,2,10,cue,8,4,4,separated,random,large,color,#0eaaaa,positive,even,NA,NA,NA
5,2,10,judge,8,4,4,separated,random,large,color,NA,positive,even,arrowup,1,799
5,2,11,cue,12,6,6,intermixed,random,large,color,#ecb718,positive,even,NA,NA,NA
5,2,11,judge,12,6,6,intermixed,random,large,color,NA,positive,even,arrowdown,1,609
5,2,12,cue,12,6,6,separated,random,large,color,#52970c,positive,even,NA,NA,NA
5,2,12,judge,12,6,6,separated,random,large,color,NA,positive,even,arrowup,0,1093
5,2,13,cue,4,2,2,intermixed,random,large,color,#2b5bee,positive,even,NA,NA,NA
5,2,13,judge,4,2,2,intermixed,random,large,color,NA,positive,even,arrowup,1,1017
5,2,14,cue,8,4,4,intermixed,random,large,color,#e21212,positive,even,NA,NA,NA
5,2,14,judge,8,4,4,intermixed,random,large,color,NA,positive,even,arrowdown,1,612
5,2,15,cue,12,6,6,separated,random,large,color,#e713b2,positive,even,NA,NA,NA
5,2,15,judge,12,6,6,separated,random,large,color,NA,positive,even,arrowup,1,1913
5,2,16,cue,8,4,4,separated,random,large,color,#660fbd,positive,even,NA,NA,NA
5,2,16,judge,8,4,4,separated,random,large,color,NA,positive,even,arrowdown,1,810
5,2,17,cue,12,6,6,separated,random,large,color,#e713b2,positive,even,NA,NA,NA
5,2,17,judge,12,6,6,separated,random,large,color,NA,positive,even,arrowdown,1,746
5,2,18,cue,8,4,4,separated,random,large,color,#660fbd,positive,even,NA,NA,NA
5,2,18,judge,8,4,4,separated,random,large,color,NA,positive,even,arrowup,1,780
5,2,19,cue,8,4,4,separated,random,large,color,#ecb718,positive,even,NA,NA,NA
5,2,19,judge,8,4,4,separated,random,large,color,NA,positive,even,arrowup,1,724
5,2,20,cue,8,4,4,separated,random,large,color,#660fbd,positive,even,NA,NA,NA
5,2,20,judge,8,4,4,separated,random,large,color,NA,positive,even,arrowdown,0,704
5,2,21,cue,8,4,4,intermixed,random,large,color,#52970c,positive,even,NA,NA,NA
5,2,21,judge,8,4,4,intermixed,random,large,color,NA,positive,even,arrowdown,1,922
5,2,22,cue,4,2,2,separated,random,large,color,#e21212,positive,even,NA,NA,NA
5,2,22,judge,4,2,2,separated,random,large,color,NA,positive,even,arrowdown,1,594
5,2,23,cue,12,6,6,intermixed,random,large,color,#660fbd,positive,even,NA,NA,NA
5,2,23,judge,12,6,6,intermixed,random,large,color,NA,positive,even,arrowdown,1,917
5,2,24,cue,4,2,2,intermixed,random,large,color,#0eaaaa,positive,even,NA,NA,NA
5,2,24,judge,4,2,2,intermixed,random,large,color,NA,positive,even,arrowup,1,1026
5,2,25,cue,12,6,6,separated,random,large,color,#e713b2,positive,even,NA,NA,NA
5,2,25,judge,12,6,6,separated,random,large,color,NA,positive,even,arrowup,1,942
5,2,26,cue,4,2,2,intermixed,random,large,color,#52970c,positive,even,NA,NA,NA
5,2,26,judge,4,2,2,intermixed,random,large,color,NA,positive,even,arrowup,1,901
5,2,27,cue,4,2,2,separated,random,large,color,#660fbd,positive,even,NA,NA,NA
5,2,27,judge,4,2,2,separated,random,large,color,NA,positive,even,arrowdown,1,583
5,2,28,cue,12,6,6,intermixed,random,large,color,#660fbd,positive,even,NA,NA,NA
5,2,28,judge,12,6,6,intermixed,random,large,color,NA,positive,even,arrowup,1,1611
5,2,29,cue,12,6,6,intermixed,random,large,color,#660fbd,positive,even,NA,NA,NA
5,2,29,judge,12,6,6,intermixed,random,large,color,NA,positive,even,arrowup,1,1066
6,0,0,cue,4,2,2,separated,random,large,color,#660fbd,positive,even,NA,NA,NA
6,0,0,judge,4,2,2,separated,random,large,color,NA,positive,even,arrowdown,1,1077
6,0,1,cue,4,2,2,intermixed,random,large,color,#ecb718,positive,even,NA,NA,NA
6,0,1,judge,4,2,2,intermixed,random,large,color,NA,positive,even,arrowdown,1,640
6,0,2,cue,12,6,6,intermixed,random,large,color,#660fbd,positive,even,NA,NA,NA
6,0,2,judge,12,6,6,intermixed,random,large,color,NA,positive,even,arrowup,1,1621
6,0,3,cue,12,6,6,intermixed,random,large,color,#52970c,positive,even,NA,NA,NA
6,0,3,judge,12,6,6,intermixed,random,large,color,NA,positive,even,arrowup,1,1351
6,0,4,cue,4,2,2,intermixed,random,large,color,#e713b2,positive,even,NA,NA,NA
6,0,4,judge,4,2,2,intermixed,random,large,color,NA,positive,even,arrowup,1,675
6,0,5,cue,8,4,4,separated,random,large,color,#0eaaaa,positive,even,NA,NA,NA
6,0,5,judge,8,4,4,separated,random,large,color,NA,positive,even,arrowdown,0,1123
6,0,6,cue,8,4,4,separated,random,large,color,#0eaaaa,positive,even,NA,NA,NA
6,0,6,judge,8,4,4,separated,random,large,color,NA,positive,even,arrowup,1,683
6,0,7,cue,8,4,4,separated,random,large,color,#e21212,positive,even,NA,NA,NA
6,0,7,judge,8,4,4,separated,random,large,color,NA,positive,even,arrowdown,1,686
6,0,8,cue,4,2,2,separated,random,large,color,#e21212,positive,even,NA,NA,NA
6,0,8,judge,4,2,2,separated,random,large,color,NA,positive,even,arrowdown,1,930
6,0,9,cue,12,6,6,intermixed,random,large,color,#2b5bee,positive,even,NA,NA,NA
6,0,9,judge,12,6,6,intermixed,random,large,color,NA,positive,even,arrowdown,1,1981
6,0,10,cue,8,4,4,intermixed,random,large,color,#0eaaaa,positive,even,NA,NA,NA
6,0,10,judge,8,4,4,intermixed,random,large,color,NA,positive,even,arrowdown,1,1221
6,0,11,cue,4,2,2,separated,random,large,color,#e713b2,positive,even,NA,NA,NA
6,0,11,judge,4,2,2,separated,random,large,color,NA,positive,even,arrowup,0,695
6,0,12,cue,4,2,2,separated,random,large,color,#ecb718,positive,even,NA,NA,NA
6,0,12,judge,4,2,2,separated,random,large,color,NA,positive,even,arrowup,1,1209
6,0,13,cue,8,4,4,intermixed,random,large,color,#e21212,positive,even,NA,NA,NA
6,0,13,judge,8,4,4,intermixed,random,large,color,NA,positive,even,arrowdown,1,1077
6,0,14,cue,12,6,6,intermixed,random,large,color,#660fbd,positive,even,NA,NA,NA
6,0,14,judge,12,6,6,intermixed,random,large,color,NA,positive,even,arrowup,1,1767
6,0,15,cue,8,4,4,separated,random,large,color,#ecb718,positive,even,NA,NA,NA
6,0,15,judge,8,4,4,separated,random,large,color,NA,positive,even,arrowdown,1,863
6,0,16,cue,12,6,6,intermixed,random,large,color,#ecb718,positive,even,NA,NA,NA
6,0,16,judge,12,6,6,intermixed,random,large,color,NA,positive,even,arrowup,1,1651
6,0,17,cue,12,6,6,separated,random,large,color,#e21212,positive,even,NA,NA,NA
6,0,17,judge,12,6,6,separated,random,large,color,NA,positive,even,arrowup,1,882
6,0,18,cue,8,4,4,separated,random,large,color,#e713b2,positive,even,NA,NA,NA
6,0,18,judge,8,4,4,separated,random,large,color,NA,positive,even,arrowup,1,1246
6,0,19,cue,4,2,2,intermixed,random,large,color,#ecb718,positive,even,NA,NA,NA
6,0,19,judge,4,2,2,intermixed,random,large,color,NA,positive,even,arrowup,0,780
6,0,20,cue,4,2,2,intermixed,random,large,color,#e713b2,positive,even,NA,NA,NA
6,0,20,judge,4,2,2,intermixed,random,large,color,NA,positive,even,arrowup,1,961
6,0,21,cue,12,6,6,separated,random,large,color,#660fbd,positive,even,NA,NA,NA
6,0,21,judge,12,6,6,separated,random,large,color,NA,positive,even,arrowdown,1,988
6,0,22,cue,12,6,6,separated,random,large,color,#ecb718,positive,even,NA,NA,NA
6,0,22,judge,12,6,6,separated,random,large,color,NA,positive,even,arrowup,1,934
6,0,23,cue,12,6,6,separated,random,large,color,#e21212,positive,even,NA,NA,NA
6,0,23,judge,12,6,6,separated,random,large,color,NA,positive,even,arrowdown,1,1304
6,0,24,cue,12,6,6,separated,random,large,color,#660fbd,positive,even,NA,NA,NA
6,0,24,judge,12,6,6,separated,random,large,color,NA,positive,even,arrowup,1,1503
6,0,25,cue,8,4,4,intermixed,random,large,color,#e21212,positive,even,NA,NA,NA
6,0,25,judge,8,4,4,intermixed,random,large,color,NA,positive,even,arrowup,1,1064
6,0,26,cue,4,2,2,intermixed,random,large,color,#0eaaaa,positive,even,NA,NA,NA
6,0,26,judge,4,2,2,intermixed,random,large,color,NA,positive,even,arrowdown,1,1157
6,0,27,cue,4,2,2,separated,random,large,color,#660fbd,positive,even,NA,NA,NA
6,0,27,judge,4,2,2,separated,random,large,color,NA,positive,even,arrowdown,1,763
6,0,28,cue,8,4,4,intermixed,random,large,color,#e713b2,positive,even,NA,NA,NA
6,0,28,judge,8,4,4,intermixed,random,large,color,NA,positive,even,arrowup,1,684
6,0,29,cue,8,4,4,intermixed,random,large,color,#e713b2,positive,even,NA,NA,NA
6,0,29,judge,8,4,4,intermixed,random,large,color,NA,positive,even,arrowdown,1,938
6,1,0,cue,8,4,4,separated,random,large,color,#e21212,negative,even,NA,NA,NA
6,1,0,judge,8,4,4,separated,random,large,color,NA,negative,even,arrowdown,1,2124
6,1,1,cue,4,2,2,separated,random,large,color,#e21212,negative,even,NA,NA,NA
6,1,1,judge,4,2,2,separated,random,large,color,NA,negative,even,arrowup,1,794
6,1,2,cue,12,6,6,separated,random,large,color,#e713b2,negative,even,NA,NA,NA
6,1,2,judge,12,6,6,separated,random,large,color,NA,negative,even,arrowdown,1,2468
6,1,3,cue,4,2,2,separated,random,large,color,#e21212,negative,even,NA,NA,NA
6,1,3,judge,4,2,2,separated,random,large,color,NA,negative,even,arrowup,1,640
6,1,4,cue,12,6,6,separated,random,large,color,#e713b2,negative,even,NA,NA,NA
6,1,4,judge,12,6,6,separated,random,large,color,NA,negative,even,arrowup,1,1100
6,1,5,cue,8,4,4,separated,random,large,color,#ecb718,negative,even,NA,NA,NA
6,1,5,judge,8,4,4,separated,random,large,color,NA,negative,even,arrowup,1,1036
6,1,6,cue,4,2,2,separated,random,large,color,#e713b2,negative,even,NA,NA,NA
6,1,6,judge,4,2,2,separated,random,large,color,NA,negative,even,arrowdown,1,936
6,1,7,cue,8,4,4,intermixed,random,large,color,#e21212,negative,even,NA,NA,NA
6,1,7,judge,8,4,4,intermixed,random,large,color,NA,negative,even,arrowup,1,1356
6,1,8,cue,4,2,2,intermixed,random,large,color,#2b5bee,negative,even,NA,NA,NA
6,1,8,judge,4,2,2,intermixed,random,large,color,NA,negative,even,arrowup,1,711
6,1,9,cue,12,6,6,intermixed,random,large,color,#660fbd,negative,even,NA,NA,NA
6,1,9,judge,12,6,6,intermixed,random,large,color,NA,negative,even,arrowdown,1,1825
6,1,10,cue,12,6,6,separated,random,large,color,#e713b2,negative,even,NA,NA,NA
6,1,10,judge,12,6,6,separated,random,large,color,NA,negative,even,arrowdown,1,1861
6,1,11,cue,8,4,4,intermixed,random,large,color,#e713b2,negative,even,NA,NA,NA
6,1,11,judge,8,4,4,intermixed,random,large,color,NA,negative,even,arrowdown,1,745
6,1,12,cue,8,4,4,intermixed,random,large,color,#2b5bee,negative,even,NA,NA,NA
6,1,12,judge,8,4,4,intermixed,random,large,color,NA,negative,even,arrowup,1,1737
6,1,13,cue,4,2,2,intermixed,random,large,color,#0eaaaa,negative,even,NA,NA,NA
6,1,13,judge,4,2,2,intermixed,random,large,color,NA,negative,even,arrowdown,1,1455
6,1,14,cue,12,6,6,intermixed,random,large,color,#e713b2,negative,even,NA,NA,NA
6,1,14,judge,12,6,6,intermixed,random,large,color,NA,negative,even,arrowdown,1,1266
6,1,15,cue,4,2,2,separated,random,large,color,#52970c,negative,even,NA,NA,NA
6,1,15,judge,4,2,2,separated,random,large,color,NA,negative,even,arrowdown,1,1034
6,1,16,cue,4,2,2,intermixed,random,large,color,#e713b2,negative,even,NA,NA,NA
6,1,16,judge,4,2,2,intermixed,random,large,color,NA,negative,even,arrowdown,1,883
6,1,17,cue,8,4,4,separated,random,large,color,#e713b2,negative,even,NA,NA,NA
6,1,17,judge,8,4,4,separated,random,large,color,NA,negative,even,arrowdown,1,1064
6,1,18,cue,4,2,2,separated,random,large,color,#ecb718,negative,even,NA,NA,NA
6,1,18,judge,4,2,2,separated,random,large,color,NA,negative,even,arrowdown,1,615
6,1,19,cue,8,4,4,intermixed,random,large,color,#660fbd,negative,even,NA,NA,NA
6,1,19,judge,8,4,4,intermixed,random,large,color,NA,negative,even,arrowup,1,1762
6,1,20,cue,4,2,2,intermixed,random,large,color,#e21212,negative,even,NA,NA,NA
6,1,20,judge,4,2,2,intermixed,random,large,color,NA,negative,even,arrowup,1,1076
6,1,21,cue,12,6,6,intermixed,random,large,color,#52970c,negative,even,NA,NA,NA
6,1,21,judge,12,6,6,intermixed,random,large,color,NA,negative,even,arrowup,1,2332
6,1,22,cue,12,6,6,separated,random,large,color,#e713b2,negative,even,NA,NA,NA
6,1,22,judge,12,6,6,separated,random,large,color,NA,negative,even,arrowdown,1,1521
6,1,23,cue,12,6,6,intermixed,random,large,color,#ecb718,negative,even,NA,NA,NA
6,1,23,judge,12,6,6,intermixed,random,large,color,NA,negative,even,arrowdown,1,2152
6,1,24,cue,12,6,6,separated,random,large,color,#e21212,negative,even,NA,NA,NA
6,1,24,judge,12,6,6,separated,random,large,color,NA,negative,even,arrowdown,1,1695
6,1,25,cue,8,4,4,intermixed,random,large,color,#e21212,negative,even,NA,NA,NA
6,1,25,judge,8,4,4,intermixed,random,large,color,NA,negative,even,arrowdown,1,1244
6,1,26,cue,12,6,6,intermixed,random,large,color,#e21212,negative,even,NA,NA,NA
6,1,26,judge,12,6,6,intermixed,random,large,color,NA,negative,even,arrowdown,1,1220
6,1,27,cue,8,4,4,separated,random,large,color,#52970c,negative,even,NA,NA,NA
6,1,27,judge,8,4,4,separated,random,large,color,NA,negative,even,arrowup,1,1205
6,1,28,cue,4,2,2,intermixed,random,large,color,#e713b2,negative,even,NA,NA,NA
6,1,28,judge,4,2,2,intermixed,random,large,color,NA,negative,even,arrowup,1,972
6,1,29,cue,8,4,4,separated,random,large,color,#52970c,negative,even,NA,NA,NA
6,1,29,judge,8,4,4,separated,random,large,color,NA,negative,even,arrowdown,1,1610
6,2,0,cue,8,4,4,intermixed,random,large,color,#0eaaaa,neutral,even,NA,NA,NA
6,2,0,judge,8,4,4,intermixed,random,large,color,NA,neutral,even,arrowdown,1,2106
6,2,1,cue,4,2,2,separated,random,large,color,#0eaaaa,neutral,even,NA,NA,NA
6,2,1,judge,4,2,2,separated,random,large,color,NA,neutral,even,arrowdown,1,623
6,2,2,cue,8,4,4,separated,random,large,color,#ecb718,neutral,even,NA,NA,NA
6,2,2,judge,8,4,4,separated,random,large,color,NA,neutral,even,arrowdown,1,1308
6,2,3,cue,8,4,4,intermixed,random,large,color,#2b5bee,neutral,even,NA,NA,NA
6,2,3,judge,8,4,4,intermixed,random,large,color,NA,neutral,even,arrowdown,1,973
6,2,4,cue,12,6,6,separated,random,large,color,#52970c,neutral,even,NA,NA,NA
6,2,4,judge,12,6,6,separated,random,large,color,NA,neutral,even,arrowdown,1,2241
6,2,5,cue,12,6,6,intermixed,random,large,color,#e713b2,neutral,even,NA,NA,NA
6,2,5,judge,12,6,6,intermixed,random,large,color,NA,neutral,even,arrowdown,1,6750
6,2,6,cue,4,2,2,intermixed,random,large,color,#e21212,neutral,even,NA,NA,NA
6,2,6,judge,4,2,2,intermixed,random,large,color,NA,neutral,even,arrowup,1,1695
6,2,7,cue,8,4,4,intermixed,random,large,color,#0eaaaa,neutral,even,NA,NA,NA
6,2,7,judge,8,4,4,intermixed,random,large,color,NA,neutral,even,arrowdown,1,1445
6,2,8,cue,8,4,4,intermixed,random,large,color,#e713b2,neutral,even,NA,NA,NA
6,2,8,judge,8,4,4,intermixed,random,large,color,NA,neutral,even,arrowup,1,1101
6,2,9,cue,4,2,2,separated,random,large,color,#ecb718,neutral,even,NA,NA,NA
6,2,9,judge,4,2,2,separated,random,large,color,NA,neutral,even,arrowdown,1,1183
6,2,10,cue,4,2,2,intermixed,random,large,color,#ecb718,neutral,even,NA,NA,NA
6,2,10,judge,4,2,2,intermixed,random,large,color,NA,neutral,even,arrowup,1,1503
6,2,11,cue,4,2,2,intermixed,random,large,color,#0eaaaa,neutral,even,NA,NA,NA
6,2,11,judge,4,2,2,intermixed,random,large,color,NA,neutral,even,arrowup,1,813
6,2,12,cue,12,6,6,separated,random,large,color,#e713b2,neutral,even,NA,NA,NA
6,2,12,judge,12,6,6,separated,random,large,color,NA,neutral,even,arrowdown,1,1886
6,2,13,cue,4,2,2,separated,random,large,color,#ecb718,neutral,even,NA,NA,NA
6,2,13,judge,4,2,2,separated,random,large,color,NA,neutral,even,arrowup,0,1423
6,2,14,cue,12,6,6,separated,random,large,color,#e21212,neutral,even,NA,NA,NA
6,2,14,judge,12,6,6,separated,random,large,color,NA,neutral,even,arrowup,1,821
6,2,15,cue,8,4,4,separated,random,large,color,#ecb718,neutral,even,NA,NA,NA
6,2,15,judge,8,4,4,separated,random,large,color,NA,neutral,even,arrowup,1,2903
6,2,16,cue,12,6,6,intermixed,random,large,color,#e21212,neutral,even,NA,NA,NA
6,2,16,judge,12,6,6,intermixed,random,large,color,NA,neutral,even,arrowdown,1,6743
6,2,17,cue,12,6,6,separated,random,large,color,#2b5bee,neutral,even,NA,NA,NA
6,2,17,judge,12,6,6,separated,random,large,color,NA,neutral,even,arrowup,1,1355
6,2,18,cue,12,6,6,intermixed,random,large,color,#0eaaaa,neutral,even,NA,NA,NA
6,2,18,judge,12,6,6,intermixed,random,large,color,NA,neutral,even,arrowdown,1,853
6,2,19,cue,4,2,2,intermixed,random,large,color,#2b5bee,neutral,even,NA,NA,NA
6,2,19,judge,4,2,2,intermixed,random,large,color,NA,neutral,even,arrowdown,1,863
6,2,20,cue,8,4,4,intermixed,random,large,color,#e713b2,neutral,even,NA,NA,NA
6,2,20,judge,8,4,4,intermixed,random,large,color,NA,neutral,even,arrowdown,1,2889
6,2,21,cue,4,2,2,separated,random,large,color,#ecb718,neutral,even,NA,NA,NA
6,2,21,judge,4,2,2,separated,random,large,color,NA,neutral,even,arrowup,1,717
6,2,22,cue,4,2,2,separated,random,large,color,#ecb718,neutral,even,NA,NA,NA
6,2,22,judge,4,2,2,separated,random,large,color,NA,neutral,even,arrowdown,1,911
6,2,23,cue,8,4,4,separated,random,large,color,#0eaaaa,neutral,even,NA,NA,NA
6,2,23,judge,8,4,4,separated,random,large,color,NA,neutral,even,arrowdown,1,2699
6,2,24,cue,8,4,4,separated,random,large,color,#660fbd,neutral,even,NA,NA,NA
6,2,24,judge,8,4,4,separated,random,large,color,NA,neutral,even,arrowdown,1,1499
6,2,25,cue,12,6,6,intermixed,random,large,color,#e21212,neutral,even,NA,NA,NA
6,2,25,judge,12,6,6,intermixed,random,large,color,NA,neutral,even,arrowdown,1,790
6,2,26,cue,12,6,6,intermixed,random,large,color,#ecb718,neutral,even,NA,NA,NA
6,2,26,judge,12,6,6,intermixed,random,large,color,NA,neutral,even,arrowdown,1,2711
6,2,27,cue,8,4,4,separated,random,large,color,#0eaaaa,neutral,even,NA,NA,NA
6,2,27,judge,8,4,4,separated,random,large,color,NA,neutral,even,arrowup,1,1188
6,2,28,cue,12,6,6,separated,random,large,color,#2b5bee,neutral,even,NA,NA,NA
6,2,28,judge,12,6,6,separated,random,large,color,NA,neutral,even,arrowdown,1,1765
6,2,29,cue,4,2,2,intermixed,random,large,color,#e21212,neutral,even,NA,NA,NA
6,2,29,judge,4,2,2,intermixed,random,large,color,NA,neutral,even,arrowdown,1,1245
7,0,0,cue,4,2,2,separated,random,large,color,#2b5bee,negative,even,NA,NA,NA
7,0,0,judge,4,2,2,separated,random,large,color,NA,negative,even,arrowdown,1,601
7,0,1,cue,4,2,2,separated,random,large,color,#660fbd,negative,even,NA,NA,NA
7,0,1,judge,4,2,2,separated,random,large,color,NA,negative,even,arrowup,1,1029
7,0,2,cue,8,4,4,intermixed,random,large,color,#52970c,negative,even,NA,NA,NA
7,0,2,judge,8,4,4,intermixed,random,large,color,NA,negative,even,arrowdown,1,1083
7,0,3,cue,4,2,2,separated,random,large,color,#ecb718,negative,even,NA,NA,NA
7,0,3,judge,4,2,2,separated,random,large,color,NA,negative,even,arrowdown,1,832
7,0,4,cue,8,4,4,intermixed,random,large,color,#660fbd,negative,even,NA,NA,NA
7,0,4,judge,8,4,4,intermixed,random,large,color,NA,negative,even,arrowup,1,588
7,0,5,cue,12,6,6,intermixed,random,large,color,#ecb718,negative,even,NA,NA,NA
7,0,5,judge,12,6,6,intermixed,random,large,color,NA,negative,even,arrowdown,1,1065
7,0,6,cue,12,6,6,separated,random,large,color,#ecb718,negative,even,NA,NA,NA
7,0,6,judge,12,6,6,separated,random,large,color,NA,negative,even,arrowdown,1,964
7,0,7,cue,4,2,2,intermixed,random,large,color,#0eaaaa,negative,even,NA,NA,NA
7,0,7,judge,4,2,2,intermixed,random,large,color,NA,negative,even,arrowup,1,717
7,0,8,cue,12,6,6,intermixed,random,large,color,#ecb718,negative,even,NA,NA,NA
7,0,8,judge,12,6,6,intermixed,random,large,color,NA,negative,even,arrowup,1,3325
7,0,9,cue,8,4,4,intermixed,random,large,color,#e713b2,negative,even,NA,NA,NA
7,0,9,judge,8,4,4,intermixed,random,large,color,NA,negative,even,arrowup,1,1078
7,0,10,cue,8,4,4,separated,random,large,color,#e713b2,negative,even,NA,NA,NA
7,0,10,judge,8,4,4,separated,random,large,color,NA,negative,even,arrowdown,1,703
7,0,11,cue,4,2,2,separated,random,large,color,#660fbd,negative,even,NA,NA,NA
7,0,11,judge,4,2,2,separated,random,large,color,NA,negative,even,arrowdown,1,678
7,0,12,cue,12,6,6,separated,random,large,color,#52970c,negative,even,NA,NA,NA
7,0,12,judge,12,6,6,separated,random,large,color,NA,negative,even,arrowdown,1,2216
7,0,13,cue,4,2,2,separated,random,large,color,#e21212,negative,even,NA,NA,NA
7,0,13,judge,4,2,2,separated,random,large,color,NA,negative,even,arrowdown,1,604
7,0,14,cue,8,4,4,separated,random,large,color,#52970c,negative,even,NA,NA,NA
7,0,14,judge,8,4,4,separated,random,large,color,NA,negative,even,arrowdown,1,1095
7,0,15,cue,8,4,4,intermixed,random,large,color,#2b5bee,negative,even,NA,NA,NA
7,0,15,judge,8,4,4,intermixed,random,large,color,NA,negative,even,arrowdown,1,677
7,0,16,cue,8,4,4,intermixed,random,large,color,#e713b2,negative,even,NA,NA,NA
7,0,16,judge,8,4,4,intermixed,random,large,color,NA,negative,even,arrowup,1,1557
7,0,17,cue,4,2,2,intermixed,random,large,color,#e21212,negative,even,NA,NA,NA
7,0,17,judge,4,2,2,intermixed,random,large,color,NA,negative,even,arrowdown,1,740
7,0,18,cue,8,4,4,separated,random,large,color,#e21212,negative,even,NA,NA,NA
7,0,18,judge,8,4,4,separated,random,large,color,NA,negative,even,arrowdown,0,991
7,0,19,cue,12,6,6,separated,random,large,color,#ecb718,negative,even,NA,NA,NA
7,0,19,judge,12,6,6,separated,random,large,color,NA,negative,even,arrowdown,1,1396
7,0,20,cue,12,6,6,intermixed,random,large,color,#660fbd,negative,even,NA,NA,NA
7,0,20,judge,12,6,6,intermixed,random,large,color,NA,negative,even,arrowup,1,2415
7,0,21,cue,4,2,2,intermixed,random,large,color,#0eaaaa,negative,even,NA,NA,NA
7,0,21,judge,4,2,2,intermixed,random,large,color,NA,negative,even,arrowup,1,732
7,0,22,cue,8,4,4,separated,random,large,color,#0eaaaa,negative,even,NA,NA,NA
7,0,22,judge,8,4,4,separated,random,large,color,NA,negative,even,arrowdown,1,1540
7,0,23,cue,4,2,2,intermixed,random,large,color,#0eaaaa,negative,even,NA,NA,NA
7,0,23,judge,4,2,2,intermixed,random,large,color,NA,negative,even,arrowup,1,729
7,0,24,cue,12,6,6,separated,random,large,color,#e21212,negative,even,NA,NA,NA
7,0,24,judge,12,6,6,separated,random,large,color,NA,negative,even,arrowdown,1,1611
7,0,25,cue,12,6,6,separated,random,large,color,#e713b2,negative,even,NA,NA,NA
7,0,25,judge,12,6,6,separated,random,large,color,NA,negative,even,arrowdown,1,1145
7,0,26,cue,4,2,2,intermixed,random,large,color,#660fbd,negative,even,NA,NA,NA
7,0,26,judge,4,2,2,intermixed,random,large,color,NA,negative,even,arrowup,1,651
7,0,27,cue,12,6,6,intermixed,random,large,color,#e21212,negative,even,NA,NA,NA
7,0,27,judge,12,6,6,intermixed,random,large,color,NA,negative,even,arrowdown,1,799
7,0,28,cue,8,4,4,separated,random,large,color,#2b5bee,negative,even,NA,NA,NA
7,0,28,judge,8,4,4,separated,random,large,color,NA,negative,even,arrowup,1,1138
7,0,29,cue,12,6,6,intermixed,random,large,color,#ecb718,negative,even,NA,NA,NA
7,0,29,judge,12,6,6,intermixed,random,large,color,NA,negative,even,arrowdown,1,769
7,1,0,cue,12,6,6,separated,random,large,color,#660fbd,neutral,even,NA,NA,NA
7,1,0,judge,12,6,6,separated,random,large,color,NA,neutral,even,arrowup,1,1269
7,1,1,cue,8,4,4,separated,random,large,color,#660fbd,neutral,even,NA,NA,NA
7,1,1,judge,8,4,4,separated,random,large,color,NA,neutral,even,arrowdown,1,770
7,1,2,cue,8,4,4,intermixed,random,large,color,#0eaaaa,neutral,even,NA,NA,NA
7,1,2,judge,8,4,4,intermixed,random,large,color,NA,neutral,even,arrowdown,1,1014
7,1,3,cue,4,2,2,intermixed,random,large,color,#ecb718,neutral,even,NA,NA,NA
7,1,3,judge,4,2,2,intermixed,random,large,color,NA,neutral,even,arrowdown,1,656
7,1,4,cue,12,6,6,intermixed,random,large,color,#2b5bee,neutral,even,NA,NA,NA
7,1,4,judge,12,6,6,intermixed,random,large,color,NA,neutral,even,arrowdown,1,2759
7,1,5,cue,12,6,6,separated,random,large,color,#ecb718,neutral,even,NA,NA,NA
7,1,5,judge,12,6,6,separated,random,large,color,NA,neutral,even,arrowup,1,2461
7,1,6,cue,4,2,2,separated,random,large,color,#0eaaaa,neutral,even,NA,NA,NA
7,1,6,judge,4,2,2,separated,random,large,color,NA,neutral,even,arrowup,1,802
7,1,7,cue,12,6,6,separated,random,large,color,#e21212,neutral,even,NA,NA,NA
7,1,7,judge,12,6,6,separated,random,large,color,NA,neutral,even,arrowdown,1,858
7,1,8,cue,8,4,4,intermixed,random,large,color,#52970c,neutral,even,NA,NA,NA
7,1,8,judge,8,4,4,intermixed,random,large,color,NA,neutral,even,arrowup,1,2132
7,1,9,cue,4,2,2,intermixed,random,large,color,#660fbd,neutral,even,NA,NA,NA
7,1,9,judge,4,2,2,intermixed,random,large,color,NA,neutral,even,arrowdown,1,1121
7,1,10,cue,4,2,2,separated,random,large,color,#e21212,neutral,even,NA,NA,NA
7,1,10,judge,4,2,2,separated,random,large,color,NA,neutral,even,arrowdown,1,1113
7,1,11,cue,4,2,2,separated,random,large,color,#52970c,neutral,even,NA,NA,NA
7,1,11,judge,4,2,2,separated,random,large,color,NA,neutral,even,arrowdown,1,587
7,1,12,cue,8,4,4,separated,random,large,color,#e21212,neutral,even,NA,NA,NA
7,1,12,judge,8,4,4,separated,random,large,color,NA,neutral,even,arrowup,1,1259
7,1,13,cue,4,2,2,intermixed,random,large,color,#e21212,neutral,even,NA,NA,NA
7,1,13,judge,4,2,2,intermixed,random,large,color,NA,neutral,even,arrowdown,1,918
7,1,14,cue,4,2,2,intermixed,random,large,color,#2b5bee,neutral,even,NA,NA,NA
7,1,14,judge,4,2,2,intermixed,random,large,color,NA,neutral,even,arrowup,1,719
7,1,15,cue,12,6,6,separated,random,large,color,#660fbd,neutral,even,NA,NA,NA
7,1,15,judge,12,6,6,separated,random,large,color,NA,neutral,even,arrowdown,1,1143
7,1,16,cue,4,2,2,separated,random,large,color,#e713b2,neutral,even,NA,NA,NA
7,1,16,judge,4,2,2,separated,random,large,color,NA,neutral,even,arrowup,1,1112
7,1,17,cue,12,6,6,intermixed,random,large,color,#ecb718,neutral,even,NA,NA,NA
7,1,17,judge,12,6,6,intermixed,random,large,color,NA,neutral,even,arrowdown,1,2011
7,1,18,cue,8,4,4,separated,random,large,color,#52970c,neutral,even,NA,NA,NA
7,1,18,judge,8,4,4,separated,random,large,color,NA,neutral,even,arrowup,1,1686
7,1,19,cue,4,2,2,intermixed,random,large,color,#2b5bee,neutral,even,NA,NA,NA
7,1,19,judge,4,2,2,intermixed,random,large,color,NA,neutral,even,arrowup,1,708
7,1,20,cue,12,6,6,intermixed,random,large,color,#52970c,neutral,even,NA,NA,NA
7,1,20,judge,12,6,6,intermixed,random,large,color,NA,neutral,even,arrowdown,1,1507
7,1,21,cue,8,4,4,intermixed,random,large,color,#52970c,neutral,even,NA,NA,NA
7,1,21,judge,8,4,4,intermixed,random,large,color,NA,neutral,even,arrowdown,1,653
7,1,22,cue,12,6,6,intermixed,random,large,color,#52970c,neutral,even,NA,NA,NA
7,1,22,judge,12,6,6,intermixed,random,large,color,NA,neutral,even,arrowup,1,2812
7,1,23,cue,12,6,6,intermixed,random,large,color,#e21212,neutral,even,NA,NA,NA
7,1,23,judge,12,6,6,intermixed,random,large,color,NA,neutral,even,arrowdown,1,2143
7,1,24,cue,12,6,6,separated,random,large,color,#ecb718,neutral,even,NA,NA,NA
7,1,24,judge,12,6,6,separated,random,large,color,NA,neutral,even,arrowup,1,3002
7,1,25,cue,8,4,4,intermixed,random,large,color,#2b5bee,neutral,even,NA,NA,NA
7,1,25,judge,8,4,4,intermixed,random,large,color,NA,neutral,even,arrowdown,1,1225
7,1,26,cue,8,4,4,separated,random,large,color,#e713b2,neutral,even,NA,NA,NA
7,1,26,judge,8,4,4,separated,random,large,color,NA,neutral,even,arrowup,1,3434
7,1,27,cue,8,4,4,intermixed,random,large,color,#ecb718,neutral,even,NA,NA,NA
7,1,27,judge,8,4,4,intermixed,random,large,color,NA,neutral,even,arrowup,1,2335
7,1,28,cue,4,2,2,separated,random,large,color,#660fbd,neutral,even,NA,NA,NA
7,1,28,judge,4,2,2,separated,random,large,color,NA,neutral,even,arrowdown,1,670
7,1,29,cue,8,4,4,separated,random,large,color,#2b5bee,neutral,even,NA,NA,NA
7,1,29,judge,8,4,4,separated,random,large,color,NA,neutral,even,arrowdown,1,1201
7,2,0,cue,4,2,2,intermixed,random,large,color,#e21212,positive,even,NA,NA,NA
7,2,0,judge,4,2,2,intermixed,random,large,color,NA,positive,even,arrowup,1,541
7,2,1,cue,4,2,2,separated,random,large,color,#e21212,positive,even,NA,NA,NA
7,2,1,judge,4,2,2,separated,random,large,color,NA,positive,even,arrowdown,1,781
7,2,2,cue,4,2,2,intermixed,random,large,color,#2b5bee,positive,even,NA,NA,NA
7,2,2,judge,4,2,2,intermixed,random,large,color,NA,positive,even,arrowup,1,1282
7,2,3,cue,8,4,4,separated,random,large,color,#0eaaaa,positive,even,NA,NA,NA
7,2,3,judge,8,4,4,separated,random,large,color,NA,positive,even,arrowdown,1,1801
7,2,4,cue,8,4,4,separated,random,large,color,#660fbd,positive,even,NA,NA,NA
7,2,4,judge,8,4,4,separated,random,large,color,NA,positive,even,arrowdown,1,852
7,2,5,cue,4,2,2,separated,random,large,color,#e21212,positive,even,NA,NA,NA
7,2,5,judge,4,2,2,separated,random,large,color,NA,positive,even,arrowdown,1,597
7,2,6,cue,12,6,6,intermixed,random,large,color,#2b5bee,positive,even,NA,NA,NA
7,2,6,judge,12,6,6,intermixed,random,large,color,NA,positive,even,arrowdown,1,1675
7,2,7,cue,8,4,4,intermixed,random,large,color,#e21212,positive,even,NA,NA,NA
7,2,7,judge,8,4,4,intermixed,random,large,color,NA,positive,even,arrowdown,1,1033
7,2,8,cue,12,6,6,intermixed,random,large,color,#52970c,positive,even,NA,NA,NA
7,2,8,judge,12,6,6,intermixed,random,large,color,NA,positive,even,arrowup,1,1461
7,2,9,cue,8,4,4,separated,random,large,color,#660fbd,positive,even,NA,NA,NA
7,2,9,judge,8,4,4,separated,random,large,color,NA,positive,even,arrowup,1,1111
7,2,10,cue,8,4,4,separated,random,large,color,#0eaaaa,positive,even,NA,NA,NA
7,2,10,judge,8,4,4,separated,random,large,color,NA,positive,even,arrowup,1,1148
7,2,11,cue,4,2,2,separated,random,large,color,#660fbd,positive,even,NA,NA,NA
7,2,11,judge,4,2,2,separated,random,large,color,NA,positive,even,arrowdown,1,886
7,2,12,cue,4,2,2,intermixed,random,large,color,#ecb718,positive,even,NA,NA,NA
7,2,12,judge,4,2,2,intermixed,random,large,color,NA,positive,even,arrowdown,1,982
7,2,13,cue,8,4,4,intermixed,random,large,color,#660fbd,positive,even,NA,NA,NA
7,2,13,judge,8,4,4,intermixed,random,large,color,NA,positive,even,arrowup,1,1055
7,2,14,cue,8,4,4,intermixed,random,large,color,#2b5bee,positive,even,NA,NA,NA
7,2,14,judge,8,4,4,intermixed,random,large,color,NA,positive,even,arrowup,1,1517
7,2,15,cue,12,6,6,intermixed,random,large,color,#52970c,positive,even,NA,NA,NA
7,2,15,judge,12,6,6,intermixed,random,large,color,NA,positive,even,arrowdown,1,929
7,2,16,cue,12,6,6,intermixed,random,large,color,#e21212,positive,even,NA,NA,NA
7,2,16,judge,12,6,6,intermixed,random,large,color,NA,positive,even,arrowup,1,694
7,2,17,cue,12,6,6,intermixed,random,large,color,#ecb718,positive,even,NA,NA,NA
7,2,17,judge,12,6,6,intermixed,random,large,color,NA,positive,even,arrowdown,1,1353
7,2,18,cue,8,4,4,intermixed,random,large,color,#660fbd,positive,even,NA,NA,NA
7,2,18,judge,8,4,4,intermixed,random,large,color,NA,positive,even,arrowup,1,951
7,2,19,cue,4,2,2,intermixed,random,large,color,#e713b2,positive,even,NA,NA,NA
7,2,19,judge,4,2,2,intermixed,random,large,color,NA,positive,even,arrowup,1,873
7,2,20,cue,4,2,2,separated,random,large,color,#2b5bee,positive,even,NA,NA,NA
7,2,20,judge,4,2,2,separated,random,large,color,NA,positive,even,arrowdown,1,675
7,2,21,cue,4,2,2,separated,random,large,color,#0eaaaa,positive,even,NA,NA,NA
7,2,21,judge,4,2,2,separated,random,large,color,NA,positive,even,arrowup,1,568
7,2,22,cue,12,6,6,separated,random,large,color,#e713b2,positive,even,NA,NA,NA
7,2,22,judge,12,6,6,separated,random,large,color,NA,positive,even,arrowup,1,1186
7,2,23,cue,12,6,6,separated,random,large,color,#52970c,positive,even,NA,NA,NA
7,2,23,judge,12,6,6,separated,random,large,color,NA,positive,even,arrowdown,1,1890
7,2,24,cue,12,6,6,separated,random,large,color,#52970c,positive,even,NA,NA,NA
7,2,24,judge,12,6,6,separated,random,large,color,NA,positive,even,arrowup,1,718
7,2,25,cue,8,4,4,separated,random,large,color,#e21212,positive,even,NA,NA,NA
7,2,25,judge,8,4,4,separated,random,large,color,NA,positive,even,arrowdown,1,930
7,2,26,cue,8,4,4,intermixed,random,large,color,#ecb718,positive,even,NA,NA,NA
7,2,26,judge,8,4,4,intermixed,random,large,color,NA,positive,even,arrowdown,1,1058
7,2,27,cue,12,6,6,separated,random,large,color,#e21212,positive,even,NA,NA,NA
7,2,27,judge,12,6,6,separated,random,large,color,NA,positive,even,arrowdown,1,1398
7,2,28,cue,4,2,2,intermixed,random,large,color,#e21212,positive,even,NA,NA,NA
7,2,28,judge,4,2,2,intermixed,random,large,color,NA,positive,even,arrowup,1,670
7,2,29,cue,12,6,6,separated,random,large,color,#e713b2,positive,even,NA,NA,NA
7,2,29,judge,12,6,6,separated,random,large,color,NA,positive,even,arrowup,1,900
8,0,0,cue,8,4,4,intermixed,random,large,color,#e713b2,neutral,even,NA,NA,NA
8,0,0,judge,8,4,4,intermixed,random,large,color,NA,neutral,even,arrowup,1,1848
8,0,1,cue,8,4,4,separated,random,large,color,#e713b2,neutral,even,NA,NA,NA
8,0,1,judge,8,4,4,separated,random,large,color,NA,neutral,even,arrowdown,1,595
