participant,block,trial,screenID,setsize,nTarget,nDistractor,layout,colorCon,radius,cueType,cueColor,condition,ratio,correct,acc,RT
1,0,0,cue,12,6,6,intermixed,switch,large,color,#0eaaaa,neutral,even,NA,NA,NA
1,0,0,judge,12,6,6,intermixed,switch,large,color,NA,neutral,even,arrowdown,1,2968
1,0,1,cue,12,6,6,intermixed,switch,large,color,#ecb718,neutral,even,NA,NA,NA
1,0,1,judge,12,6,6,intermixed,switch,large,color,NA,neutral,even,arrowdown,1,979
1,0,2,cue,12,6,6,intermixed,switch,large,color,#e21212,negative,even,NA,NA,NA
1,0,2,judge,12,6,6,intermixed,switch,large,color,NA,negative,even,arrowup,1,1740
1,0,3,cue,12,6,6,intermixed,switch,large,color,#e21212,positive,even,NA,NA,NA
1,0,3,judge,12,6,6,intermixed,switch,large,color,NA,positive,even,arrowup,1,1600
1,0,4,cue,12,6,6,intermixed,switch,large,color,#52970c,positive,even,NA,NA,NA
1,0,4,judge,12,6,6,intermixed,switch,large,color,NA,positive,even,arrowup,1,1764
1,0,5,cue,12,6,6,intermixed,switch,large,color,#e21212,negative,even,NA,NA,NA
1,0,5,judge,12,6,6,intermixed,switch,large,color,NA,negative,even,arrowdown,1,4350
1,0,6,cue,12,6,6,intermixed,switch,large,color,#52970c,negative,even,NA,NA,NA
1,0,6,judge,12,6,6,intermixed,switch,large,color,NA,negative,even,arrowup,1,1507
1,0,7,cue,12,6,6,intermixed,switch,large,color,#e21212,negative,even,NA,NA,NA
1,0,7,judge,12,6,6,intermixed,switch,large,color,NA,negative,even,arrowdown,0,1847
1,0,8,cue,12,6,6,intermixed,switch,large,color,#52970c,positive,even,NA,NA,NA
1,0,8,judge,12,6,6,intermixed,switch,large,color,NA,positive,even,arrowdown,1,923
1,0,9,cue,12,6,6,intermixed,switch,large,color,#e713b2,neutral,even,NA,NA,NA
1,0,9,judge,12,6,6,intermixed,switch,large,color,NA,neutral,even,arrowup,1,5321
1,0,10,cue,12,6,6,intermixed,switch,large,color,#e21212,negative,even,NA,NA,NA
1,0,10,judge,12,6,6,intermixed,switch,large,color,NA,negative,even,arrowup,1,1191
1,0,11,cue,12,6,6,intermixed,switch,large,color,#0eaaaa,neutral,even,NA,NA,NA
1,0,11,judge,12,6,6,intermixed,switch,large,color,NA,neutral,even,arrowup,1,1075
1,0,12,cue,12,6,6,intermixed,switch,large,color,#e21212,negative,even,NA,NA,NA
1,0,12,judge,12,6,6,intermixed,switch,large,color,NA,negative,even,arrowup,1,1472
1,0,13,cue,12,6,6,intermixed,switch,large,color,#660fbd,neutral,even,NA,NA,NA
1,0,13,judge,12,6,6,intermixed,switch,large,color,NA,neutral,even,arrowup,1,1668
1,0,14,cue,12,6,6,intermixed,switch,large,color,#e713b2,neutral,even,NA,NA,NA
1,0,14,judge,12,6,6,intermixed,switch,large,color,NA,neutral,even,arrowup,1,848
1,0,15,cue,12,6,6,intermixed,switch,large,color,#e21212,positive,even,NA,NA,NA
1,0,15,judge,12,6,6,intermixed,switch,large,color,NA,positive,even,arrowdown,1,1690
1,0,16,cue,12,6,6,intermixed,switch,large,color,#52970c,positive,even,NA,NA,NA
1,0,16,judge,12,6,6,intermixed,switch,large,color,NA,positive,even,arrowdown,1,2296
1,0,17,cue,12,6,6,intermixed,switch,large,color,#e21212,negative,even,NA,NA,NA
1,0,17,judge,12,6,6,intermixed,switch,large,color,NA,negative,even,arrowdown,1,2350
1,0,18,cue,12,6,6,intermixed,switch,large,color,#e21212,negative,even,NA,NA,NA
1,0,18,judge,12,6,6,intermixed,switch,large,color,NA,negative,even,arrowdown,1,1171
1,0,19,cue,12,6,6,intermixed,switch,large,color,#e21212,positive,even,NA,NA,NA
1,0,19,judge,12,6,6,intermixed,switch,large,color,NA,positive,even,arrowdown,1,1583
1,0,20,cue,12,6,6,intermixed,switch,large,color,#52970c,negative,even,NA,NA,NA
1,0,20,judge,12,6,6,intermixed,switch,large,color,NA,negative,even,arrowup,1,1923
1,0,21,cue,12,6,6,intermixed,switch,large,color,#52970c,positive,even,NA,NA,NA
1,0,21,judge,12,6,6,intermixed,switch,large,color,NA,positive,even,arrowdown,1,1304
1,0,22,cue,12,6,6,intermixed,switch,large,color,#52970c,positive,even,NA,NA,NA
1,0,22,judge,12,6,6,intermixed,switch,large,color,NA,positive,even,arrowup,1,1716
1,0,23,cue,12,6,6,intermixed,switch,large,color,#e21212,positive,even,NA,NA,NA
1,0,23,judge,12,6,6,intermixed,switch,large,color,NA,positive,even,arrowdown,1,1056
1,0,24,cue,12,6,6,intermixed,switch,large,color,#660fbd,neutral,even,NA,NA,NA
1,0,24,judge,12,6,6,intermixed,switch,large,color,NA,neutral,even,arrowdown,1,3021
1,0,25,cue,12,6,6,intermixed,switch,large,color,#52970c,positive,even,NA,NA,NA
1,0,25,judge,12,6,6,intermixed,switch,large,color,NA,positive,even,arrowdown,1,1292
1,0,26,cue,12,6,6,intermixed,switch,large,color,#e713b2,neutral,even,NA,NA,NA
1,0,26,judge,12,6,6,intermixed,switch,large,color,NA,neutral,even,arrowup,1,1316
1,0,27,cue,12,6,6,intermixed,switch,large,color,#52970c,negative,even,NA,NA,NA
1,0,27,judge,12,6,6,intermixed,switch,large,color,NA,negative,even,arrowdown,1,968
1,0,28,cue,12,6,6,intermixed,switch,large,color,#2b5bee,neutral,even,NA,NA,NA
1,0,28,judge,12,6,6,intermixed,switch,large,color,NA,neutral,even,arrowdown,1,2095
1,0,29,cue,12,6,6,intermixed,switch,large,color,#e21212,positive,even,NA,NA,NA
1,0,29,judge,12,6,6,intermixed,switch,large,color,NA,positive,even,arrowup,1,2117
1,0,30,cue,12,6,6,intermixed,switch,large,color,#e21212,negative,even,NA,NA,NA
1,0,30,judge,12,6,6,intermixed,switch,large,color,NA,negative,even,arrowdown,1,833
1,0,31,cue,12,6,6,intermixed,switch,large,color,#e21212,positive,even,NA,NA,NA
1,0,31,judge,12,6,6,intermixed,switch,large,color,NA,positive,even,arrowdown,1,1718
1,0,32,cue,12,6,6,intermixed,switch,large,color,#ecb718,neutral,even,NA,NA,NA
1,0,32,judge,12,6,6,intermixed,switch,large,color,NA,neutral,even,arrowup,1,993
1,0,33,cue,12,6,6,intermixed,switch,large,color,#660fbd,neutral,even,NA,NA,NA
1,0,33,judge,12,6,6,intermixed,switch,large,color,NA,neutral,even,arrowdown,1,1104
1,0,34,cue,12,6,6,intermixed,switch,large,color,#e713b2,neutral,even,NA,NA,NA
1,0,34,judge,12,6,6,intermixed,switch,large,color,NA,neutral,even,arrowup,1,2792
1,0,35,cue,12,6,6,intermixed,switch,large,color,#52970c,negative,even,NA,NA,NA
1,0,35,judge,12,6,6,intermixed,switch,large,color,NA,negative,even,arrowup,1,771
1,0,36,cue,12,6,6,intermixed,switch,large,color,#e21212,negative,even,NA,NA,NA
1,0,36,judge,12,6,6,intermixed,switch,large,color,NA,negative,even,arrowdown,1,1815
1,0,37,cue,12,6,6,intermixed,switch,large,color,#ecb718,neutral,even,NA,NA,NA
1,0,37,judge,12,6,6,intermixed,switch,large,color,NA,neutral,even,arrowup,1,2440
1,0,38,cue,12,6,6,intermixed,switch,large,color,#e21212,negative,even,NA,NA,NA
1,0,38,judge,12,6,6,intermixed,switch,large,color,NA,negative,even,arrowdown,1,855
1,0,39,cue,12,6,6,intermixed,switch,large,color,#52970c,negative,even,NA,NA,NA
1,0,39,judge,12,6,6,intermixed,switch,large,color,NA,negative,even,arrowup,1,1826
1,0,40,cue,12,6,6,intermixed,switch,large,color,#2b5bee,neutral,even,NA,NA,NA
1,0,40,judge,12,6,6,intermixed,switch,large,color,NA,neutral,even,arrowdown,1,1127
1,0,41,cue,12,6,6,intermixed,switch,large,color,#e21212,positive,even,NA,NA,NA
1,0,41,judge,12,6,6,intermixed,switch,large,color,NA,positive,even,arrowdown,1,3538
1,0,42,cue,12,6,6,intermixed,switch,large,color,#0eaaaa,neutral,even,NA,NA,NA
1,0,42,judge,12,6,6,intermixed,switch,large,color,NA,neutral,even,arrowdown,1,974
1,0,43,cue,12,6,6,intermixed,switch,large,color,#ecb718,neutral,even,NA,NA,NA
1,0,43,judge,12,6,6,intermixed,switch,large,color,NA,neutral,even,arrowdown,1,2723
1,0,44,cue,12,6,6,intermixed,switch,large,color,#660fbd,neutral,even,NA,NA,NA
1,0,44,judge,12,6,6,intermixed,switch,large,color,NA,neutral,even,arrowup,1,2972
1,0,45,cue,12,6,6,intermixed,switch,large,color,#2b5bee,neutral,even,NA,NA,NA
1,0,45,judge,12,6,6,intermixed,switch,large,color,NA,neutral,even,arrowup,1,1309
1,0,46,cue,12,6,6,intermixed,switch,large,color,#52970c,negative,even,NA,NA,NA
1,0,46,judge,12,6,6,intermixed,switch,large,color,NA,negative,even,arrowdown,1,1394
1,0,47,cue,12,6,6,intermixed,switch,large,color,#52970c,positive,even,NA,NA,NA
1,0,47,judge,12,6,6,intermixed,switch,large,color,NA,positive,even,arrowup,1,2117
1,0,48,cue,12,6,6,intermixed,switch,large,color,#660fbd,neutral,even,NA,NA,NA
1,0,48,judge,12,6,6,intermixed,switch,large,color,NA,neutral,even,arrowup,1,1516
1,0,49,cue,12,6,6,intermixed,switch,large,color,#52970c,negative,even,NA,NA,NA
1,0,49,judge,12,6,6,intermixed,switch,large,color,NA,negative,even,arrowdown,1,2078
1,0,50,cue,12,6,6,intermixed,switch,large,color,#e21212,negative,even,NA,NA,NA
1,0,50,judge,12,6,6,intermixed,switch,large,color,NA,negative,even,arrowdown,1,864
1,0,51,cue,12,6,6,intermixed,switch,large,color,#0eaaaa,neutral,even,NA,NA,NA
1,0,51,judge,12,6,6,intermixed,switch,large,color,NA,neutral,even,arrowup,1,969
1,0,52,cue,12,6,6,intermixed,switch,large,color,#52970c,negative,even,NA,NA,NA
1,0,52,judge,12,6,6,intermixed,switch,large,color,NA,negative,even,arrowup,1,944
1,0,53,cue,12,6,6,intermixed,switch,large,color,#52970c,negative,even,NA,NA,NA
1,0,53,judge,12,6,6,intermixed,switch,large,color,NA,negative,even,arrowup,1,816
1,0,54,cue,12,6,6,intermixed,switch,large,color,#52970c,positive,even,NA,NA,NA
1,0,54,judge,12,6,6,intermixed,switch,large,color,NA,positive,even,arrowdown,1,1543
1,0,55,cue,12,6,6,intermixed,switch,large,color,#e21212,positive,even,NA,NA,NA
1,0,55,judge,12,6,6,intermixed,switch,large,color,NA,positive,even,arrowup,1,704
1,0,56,cue,12,6,6,intermixed,switch,large,color,#52970c,negative,even,NA,NA,NA
1,0,56,judge,12,6,6,intermixed,switch,large,color,NA,negative,even,arrowup,1,1758
1,0,57,cue,12,6,6,intermixed,switch,large,color,#660fbd,neutral,even,NA,NA,NA
1,0,57,judge,12,6,6,intermixed,switch,large,color,NA,neutral,even,arrowup,1,1052
1,0,58,cue,12,6,6,intermixed,switch,large,color,#e21212,positive,even,NA,NA,NA
1,0,58,judge,12,6,6,intermixed,switch,large,color,NA,positive,even,arrowup,1,1977
1,0,59,cue,12,6,6,intermixed,switch,large,color,#ecb718,neutral,even,NA,NA,NA
1,0,59,judge,12,6,6,intermixed,switch,large,color,NA,neutral,even,arrowdown,1,1314
1,0,60,cue,12,6,6,intermixed,switch,large,color,#e21212,positive,even,NA,NA,NA
1,0,60,judge,12,6,6,intermixed,switch,large,color,NA,positive,even,arrowdown,1,1215
1,0,61,cue,12,6,6,intermixed,switch,large,color,#52970c,negative,even,NA,NA,NA
1,0,61,judge,12,6,6,intermixed,switch,large,color,NA,negative,even,arrowup,1,812
1,0,62,cue,12,6,6,intermixed,switch,large,color,#52970c,negative,even,NA,NA,NA
1,0,62,judge,12,6,6,intermixed,switch,large,color,NA,negative,even,arrowdown,1,977
1,0,63,cue,12,6,6,intermixed,switch,large,color,#e21212,positive,even,NA,NA,NA
1,0,63,judge,12,6,6,intermixed,switch,large,color,NA,positive,even,arrowdown,1,1561
1,0,64,cue,12,6,6,intermixed,switch,large,color,#e21212,negative,even,NA,NA,NA
1,0,64,judge,12,6,6,intermixed,switch,large,color,NA,negative,even,arrowdown,1,1043
1,0,65,cue,12,6,6,intermixed,switch,large,color,#52970c,positive,even,NA,NA,NA
1,0,65,judge,12,6,6,intermixed,switch,large,color,NA,positive,even,arrowdown,1,1288
1,0,66,cue,12,6,6,intermixed,switch,large,color,#2b5bee,neutral,even,NA,NA,NA
1,0,66,judge,12,6,6,intermixed,switch,large,color,NA,neutral,even,arrowdown,1,3829
1,0,67,cue,12,6,6,intermixed,switch,large,color,#52970c,negative,even,NA,NA,NA
1,0,67,judge,12,6,6,intermixed,switch,large,color,NA,negative,even,arrowdown,1,764
1,0,68,cue,12,6,6,intermixed,switch,large,color,#52970c,positive,even,NA,NA,NA
1,0,68,judge,12,6,6,intermixed,switch,large,color,NA,positive,even,arrowup,1,1601
1,0,69,cue,12,6,6,intermixed,switch,large,color,#52970c,positive,even,NA,NA,NA
1,0,69,judge,12,6,6,intermixed,switch,large,color,NA,positive,even,arrowdown,1,2002
1,0,70,cue,12,6,6,intermixed,switch,large,color,#660fbd,neutral,even,NA,NA,NA
1,0,70,judge,12,6,6,intermixed,switch,large,color,NA,neutral,even,arrowdown,1,632
1,0,71,cue,12,6,6,intermixed,switch,large,color,#0eaaaa,neutral,even,NA,NA,NA
1,0,71,judge,12,6,6,intermixed,switch,large,color,NA,neutral,even,arrowdown,1,1851
1,0,72,cue,12,6,6,intermixed,switch,large,color,#e21212,positive,even,NA,NA,NA
1,0,72,judge,12,6,6,intermixed,switch,large,color,NA,positive,even,arrowup,1,1667
1,0,73,cue,12,6,6,intermixed,switch,large,color,#e21212,positive,even,NA,NA,NA
1,0,73,judge,12,6,6,intermixed,switch,large,color,NA,positive,even,arrowup,1,1089
1,0,74,cue,12,6,6,intermixed,switch,large,color,#52970c,negative,even,NA,NA,NA
1,0,74,judge,12,6,6,intermixed,switch,large,color,NA,negative,even,arrowup,1,1649
1,0,75,cue,12,6,6,intermixed,switch,large,color,#660fbd,neutral,even,NA,NA,NA
1,0,75,judge,12,6,6,intermixed,switch,large,color,NA,neutral,even,arrowdown,1,1128
1,0,76,cue,12,6,6,intermixed,switch,large,color,#52970c,negative,even,NA,NA,NA
1,0,76,judge,12,6,6,intermixed,switch,large,color,NA,negative,even,arrowdown,1,1215
1,0,77,cue,12,6,6,intermixed,switch,large,color,#ecb718,neutral,even,NA,NA,NA
1,0,77,judge,12,6,6,intermixed,switch,large,color,NA,neutral,even,arrowdown,1,971
1,0,78,cue,12,6,6,intermixed,switch,large,color,#e21212,positive,even,NA,NA,NA
1,0,78,judge,12,6,6,intermixed,switch,large,color,NA,positive,even,arrowdown,1,766
1,0,79,cue,12,6,6,intermixed,switch,large,color,#ecb718,neutral,even,NA,NA,NA
1,0,79,judge,12,6,6,intermixed,switch,large,color,NA,neutral,even,arrowdown,1,2108
1,0,80,cue,12,6,6,intermixed,switch,large,color,#e21212,positive,even,NA,NA,NA
1,0,80,judge,12,6,6,intermixed,switch,large,color,NA,positive,even,arrowdown,1,1560
1,0,81,cue,12,6,6,intermixed,switch,large,color,#0eaaaa,neutral,even,NA,NA,NA
1,0,81,judge,12,6,6,intermixed,switch,large,color,NA,neutral,even,arrowdown,1,3519
1,0,82,cue,12,6,6,intermixed,switch,large,color,#2b5bee,neutral,even,NA,NA,NA
1,0,82,judge,12,6,6,intermixed,switch,large,color,NA,neutral,even,arrowup,1,2715
1,0,83,cue,12,6,6,intermixed,switch,large,color,#52970c,negative,even,NA,NA,NA
1,0,83,judge,12,6,6,intermixed,switch,large,color,NA,negative,even,arrowdown,1,1017
1,0,84,cue,12,6,6,intermixed,switch,large,color,#52970c,negative,even,NA,NA,NA
1,0,84,judge,12,6,6,intermixed,switch,large,color,NA,negative,even,arrowdown,1,7940
1,0,85,cue,12,6,6,intermixed,switch,large,color,#e713b2,neutral,even,NA,NA,NA
1,0,85,judge,12,6,6,intermixed,switch,large,color,NA,neutral,even,arrowdown,1,1273
1,0,86,cue,12,6,6,intermixed,switch,large,color,#e21212,negative,even,NA,NA,NA
1,0,86,judge,12,6,6,intermixed,switch,large,color,NA,negative,even,arrowup,1,1310
1,0,87,cue,12,6,6,intermixed,switch,large,color,#52970c,positive,even,NA,NA,NA
1,0,87,judge,12,6,6,intermixed,switch,large,color,NA,positive,even,arrowdown,1,1291
1,0,88,cue,12,6,6,intermixed,switch,large,color,#e21212,negative,even,NA,NA,NA
1,0,88,judge,12,6,6,intermixed,switch,large,color,NA,negative,even,arrowdown,1,1737
1,0,89,cue,12,6,6,intermixed,switch,large,color,#52970c,positive,even,NA,NA,NA
1,0,89,judge,12,6,6,intermixed,switch,large,color,NA,positive,even,arrowup,1,3042
1,0,90,cue,12,6,6,intermixed,switch,large,color,#e21212,negative,even,NA,NA,NA
1,0,90,judge,12,6,6,intermixed,switch,large,color,NA,negative,even,arrowdown,1,1984
1,0,91,cue,12,6,6,intermixed,switch,large,color,#e21212,negative,even,NA,NA,NA
1,0,91,judge,12,6,6,intermixed,switch,large,color,NA,negative,even,arrowup,1,1417
1,0,92,cue,12,6,6,intermixed,switch,large,color,#ecb718,neutral,even,NA,NA,NA
1,0,92,judge,12,6,6,intermixed,switch,large,color,NA,neutral,even,arrowup,1,3038
1,0,93,cue,12,6,6,intermixed,switch,large,color,#52970c,positive,even,NA,NA,NA
1,0,93,judge,12,6,6,intermixed,switch,large,color,NA,positive,even,arrowup,1,1980
1,0,94,cue,12,6,6,intermixed,switch,large,color,#e21212,positive,even,NA,NA,NA
1,0,94,judge,12,6,6,intermixed,switch,large,color,NA,positive,even,arrowdown,1,1485
1,0,95,cue,12,6,6,intermixed,switch,large,color,#e21212,positive,even,NA,NA,NA
1,0,95,judge,12,6,6,intermixed,switch,large,color,NA,positive,even,arrowup,1,1785
1,0,96,cue,12,6,6,intermixed,switch,large,color,#52970c,negative,even,NA,NA,NA
1,0,96,judge,12,6,6,intermixed,switch,large,color,NA,negative,even,arrowdown,1,1494
1,0,97,cue,12,6,6,intermixed,switch,large,color,#e21212,negative,even,NA,NA,NA
1,0,97,judge,12,6,6,intermixed,switch,large,color,NA,negative,even,arrowdown,1,2011
1,0,98,cue,12,6,6,intermixed,switch,large,color,#e21212,positive,even,NA,NA,NA
1,0,98,judge,12,6,6,intermixed,switch,large,color,NA,positive,even,arrowdown,1,1646
1,0,99,cue,12,6,6,intermixed,switch,large,color,#2b5bee,neutral,even,NA,NA,NA
1,0,99,judge,12,6,6,intermixed,switch,large,color,NA,neutral,even,arrowup,1,1157
1,0,100,cue,12,6,6,intermixed,switch,large,color,#0eaaaa,neutral,even,NA,NA,NA
1,0,100,judge,12,6,6,intermixed,switch,large,color,NA,neutral,even,arrowdown,1,2271
1,0,101,cue,12,6,6,intermixed,switch,large,color,#52970c,negative,even,NA,NA,NA
1,0,101,judge,12,6,6,intermixed,switch,large,color,NA,negative,even,arrowdown,1,1736
1,0,102,cue,12,6,6,intermixed,switch,large,color,#660fbd,neutral,even,NA,NA,NA
1,0,102,judge,12,6,6,intermixed,switch,large,color,NA,neutral,even,arrowup,1,2966
1,0,103,cue,12,6,6,intermixed,switch,large,color,#52970c,positive,even,NA,NA,NA
1,0,103,judge,12,6,6,intermixed,switch,large,color,NA,positive,even,arrowup,1,2134
1,0,104,cue,12,6,6,intermixed,switch,large,color,#ecb718,neutral,even,NA,NA,NA
1,0,104,judge,12,6,6,intermixed,switch,large,color,NA,neutral,even,arrowdown,1,1898
1,0,105,cue,12,6,6,intermixed,switch,large,color,#e21212,positive,even,NA,NA,NA
1,0,105,judge,12,6,6,intermixed,switch,large,color,NA,positive,even,arrowup,1,704
1,0,106,cue,12,6,6,intermixed,switch,large,color,#ecb718,neutral,even,NA,NA,NA
1,0,106,judge,12,6,6,intermixed,switch,large,color,NA,neutral,even,arrowup,1,2161
1,0,107,cue,12,6,6,intermixed,switch,large,color,#ecb718,neutral,even,NA,NA,NA
1,0,107,judge,12,6,6,intermixed,switch,large,color,NA,neutral,even,arrowup,1,1438
1,0,108,cue,12,6,6,intermixed,switch,large,color,#e21212,positive,even,NA,NA,NA
1,0,108,judge,12,6,6,intermixed,switch,large,color,NA,positive,even,arrowdown,1,1663
1,0,109,cue,12,6,6,intermixed,switch,large,color,#e21212,negative,even,NA,NA,NA
1,0,109,judge,12,6,6,intermixed,switch,large,color,NA,negative,even,arrowup,1,1488
1,0,110,cue,12,6,6,intermixed,switch,large,color,#e21212,positive,even,NA,NA,NA
1,0,110,judge,12,6,6,intermixed,switch,large,color,NA,positive,even,arrowdown,1,1349
1,0,111,cue,12,6,6,intermixed,switch,large,color,#e21212,negative,even,NA,NA,NA
1,0,111,judge,12,6,6,intermixed,switch,large,color,NA,negative,even,arrowup,1,1243
1,0,112,cue,12,6,6,intermixed,switch,large,color,#e21212,negative,even,NA,NA,NA
1,0,112,judge,12,6,6,intermixed,switch,large,color,NA,negative,even,arrowdown,1,1001
1,0,113,cue,12,6,6,intermixed,switch,large,color,#2b5bee,neutral,even,NA,NA,NA
1,0,113,judge,12,6,6,intermixed,switch,large,color,NA,neutral,even,arrowdown,1,1198
1,0,114,cue,12,6,6,intermixed,switch,large,color,#e21212,negative,even,NA,NA,NA
1,0,114,judge,12,6,6,intermixed,switch,large,color,NA,negative,even,arrowup,1,1380
1,0,115,cue,12,6,6,intermixed,switch,large,color,#52970c,negative,even,NA,NA,NA
1,0,115,judge,12,6,6,intermixed,switch,large,color,NA,negative,even,arrowup,1,1420
1,0,116,cue,12,6,6,intermixed,switch,large,color,#52970c,negative,even,NA,NA,NA
1,0,116,judge,12,6,6,intermixed,switch,large,color,NA,negative,even,arrowup,1,1508
1,0,117,cue,12,6,6,intermixed,switch,large,color,#e713b2,neutral,even,NA,NA,NA
1,0,117,judge,12,6,6,intermixed,switch,large,color,NA,neutral,even,arrowdown,1,1686
1,0,118,cue,12,6,6,intermixed,switch,large,color,#e21212,positive,even,NA,NA,NA
1,0,118,judge,12,6,6,intermixed,switch,large,color,NA,positive,even,arrowdown,1,957
1,0,119,cue,12,6,6,intermixed,switch,large,color,#660fbd,neutral,even,NA,NA,NA
1,0,119,judge,12,6,6,intermixed,switch,large,color,NA,neutral,even,arrowup,1,1787
1,0,120,cue,12,6,6,intermixed,switch,large,color,#e21212,negative,even,NA,NA,NA
1,0,120,judge,12,6,6,intermixed,switch,large,color,NA,negative,even,arrowdown,1,3379
1,0,121,cue,12,6,6,intermixed,switch,large,color,#660fbd,neutral,even,NA,NA,NA
1,0,121,judge,12,6,6,intermixed,switch,large,color,NA,neutral,even,arrowdown,1,2153
1,0,122,cue,12,6,6,intermixed,switch,large,color,#e21212,negative,even,NA,NA,NA
1,0,122,judge,12,6,6,intermixed,switch,large,color,NA,negative,even,arrowdown,1,1981
1,0,123,cue,12,6,6,intermixed,switch,large,color,#52970c,positive,even,NA,NA,NA
1,0,123,judge,12,6,6,intermixed,switch,large,color,NA,positive,even,arrowdown,1,1171
1,0,124,cue,12,6,6,intermixed,switch,large,color,#e713b2,neutral,even,NA,NA,NA
1,0,124,judge,12,6,6,intermixed,switch,large,color,NA,neutral,even,arrowup,1,1216
1,0,125,cue,12,6,6,intermixed,switch,large,color,#e21212,positive,even,NA,NA,NA
1,0,125,judge,12,6,6,intermixed,switch,large,color,NA,positive,even,arrowdown,1,771
1,0,126,cue,12,6,6,intermixed,switch,large,color,#e21212,negative,even,NA,NA,NA
1,0,126,judge,12,6,6,intermixed,switch,large,color,NA,negative,even,arrowdown,1,1891
1,0,127,cue,12,6,6,intermixed,switch,large,color,#660fbd,neutral,even,NA,NA,NA
1,0,127,judge,12,6,6,intermixed,switch,large,color,NA,neutral,even,arrowup,1,1407
1,0,128,cue,12,6,6,intermixed,switch,large,color,#ecb718,neutral,even,NA,NA,NA
1,0,128,judge,12,6,6,intermixed,switch,large,color,NA,neutral,even,arrowdown,1,1814
1,0,129,cue,12,6,6,intermixed,switch,large,color,#52970c,negative,even,NA,NA,NA
1,0,129,judge,12,6,6,intermixed,switch,large,color,NA,negative,even,arrowup,1,1347
1,0,130,cue,12,6,6,intermixed,switch,large,color,#ecb718,neutral,even,NA,NA,NA
1,0,130,judge,12,6,6,intermixed,switch,large,color,NA,neutral,even,arrowup,1,1466
1,0,131,cue,12,6,6,intermixed,switch,large,color,#e21212,positive,even,NA,NA,NA
1,0,131,judge,12,6,6,intermixed,switch,large,color,NA,positive,even,arrowdown,1,1351
1,0,132,cue,12,6,6,intermixed,switch,large,color,#e21212,negative,even,NA,NA,NA
1,0,132,judge,12,6,6,intermixed,switch,large,color,NA,negative,even,arrowup,1,932
1,0,133,cue,12,6,6,intermixed,switch,large,color,#e21212,negative,even,NA,NA,NA
1,0,133,judge,12,6,6,intermixed,switch,large,color,NA,negative,even,arrowdown,1,2360
1,0,134,cue,12,6,6,intermixed,switch,large,color,#660fbd,neutral,even,NA,NA,NA
1,0,134,judge,12,6,6,intermixed,switch,large,color,NA,neutral,even,arrowup,1,928
1,0,135,cue,12,6,6,intermixed,switch,large,color,#e713b2,neutral,even,NA,NA,NA
1,0,135,judge,12,6,6,intermixed,switch,large,color,NA,neutral,even,arrowup,1,1068
1,0,136,cue,12,6,6,intermixed,switch,large,color,#e21212,negative,even,NA,NA,NA
1,0,136,judge,12,6,6,intermixed,switch,large,color,NA,negative,even,arrowup,1,1997
1,0,137,cue,12,6,6,intermixed,switch,large,color,#52970c,positive,even,NA,NA,NA
1,0,137,judge,12,6,6,intermixed,switch,large,color,NA,positive,even,arrowdown,1,879
1,0,138,cue,12,6,6,intermixed,switch,large,color,#2b5bee,neutral,even,NA,NA,NA
1,0,138,judge,12,6,6,intermixed,switch,large,color,NA,neutral,even,arrowup,1,2853
1,0,139,cue,12,6,6,intermixed,switch,large,color,#52970c,negative,even,NA,NA,NA
1,0,139,judge,12,6,6,intermixed,switch,large,color,NA,negative,even,arrowup,1,718
1,0,140,cue,12,6,6,intermixed,switch,large,color,#ecb718,neutral,even,NA,NA,NA
1,0,140,judge,12,6,6,intermixed,switch,large,color,NA,neutral,even,arrowup,1,1288
1,0,141,cue,12,6,6,intermixed,switch,large,color,#e21212,positive,even,NA,NA,NA
1,0,141,judge,12,6,6,intermixed,switch,large,color,NA,positive,even,arrowdown,1,2297
1,0,142,cue,12,6,6,intermixed,switch,large,color,#660fbd,neutral,even,NA,NA,NA
1,0,142,judge,12,6,6,intermixed,switch,large,color,NA,neutral,even,arrowup,1,1646
1,0,143,cue,12,6,6,intermixed,switch,large,color,#52970c,negative,even,NA,NA,NA
1,0,143,judge,12,6,6,intermixed,switch,large,color,NA,negative,even,arrowup,1,1451
1,0,144,cue,12,6,6,intermixed,switch,large,color,#52970c,positive,even,NA,NA,NA
1,0,144,judge,12,6,6,intermixed,switch,large,color,NA,positive,even,arrowup,1,835
1,0,145,cue,12,6,6,intermixed,switch,large,color,#52970c,positive,even,NA,NA,NA
1,0,145,judge,12,6,6,intermixed,switch,large,color,NA,positive,even,arrowup,1,772
1,0,146,cue,12,6,6,intermixed,switch,large,color,#52970c,positive,even,NA,NA,NA
1,0,146,judge,12,6,6,intermixed,switch,large,color,NA,positive,even,arrowdown,1,1693
1,0,147,cue,12,6,6,intermixed,switch,large,color,#e21212,positive,even,NA,NA,NA
1,0,147,judge,12,6,6,intermixed,switch,large,color,NA,positive,even,arrowdown,1,859
1,0,148,cue,12,6,6,intermixed,switch,large,color,#2b5bee,neutral,even,NA,NA,NA
1,0,148,judge,12,6,6,intermixed,switch,large,color,NA,neutral,even,arrowdown,1,1010
1,0,149,cue,12,6,6,intermixed,switch,large,color,#52970c,negative,even,NA,NA,NA
1,0,149,judge,12,6,6,intermixed,switch,large,color,NA,negative,even,arrowdown,1,1342
1,0,150,cue,12,6,6,intermixed,switch,large,color,#52970c,positive,even,NA,NA,NA
1,0,150,judge,12,6,6,intermixed,switch,large,color,NA,positive,even,arrowdown,1,2033
1,0,151,cue,12,6,6,intermixed,switch,large,color,#0eaaaa,neutral,even,NA,NA,NA
1,0,151,judge,12,6,6,intermixed,switch,large,color,NA,neutral,even,arrowdown,1,1575
1,0,152,cue,12,6,6,intermixed,switch,large,color,#e21212,negative,even,NA,NA,NA
1,0,152,judge,12,6,6,intermixed,switch,large,color,NA,negative,even,arrowdown,1,812
1,0,153,cue,12,6,6,intermixed,switch,large,color,#e21212,positive,even,NA,NA,NA
1,0,153,judge,12,6,6,intermixed,switch,large,color,NA,positive,even,arrowup,1,1617
1,0,154,cue,12,6,6,intermixed,switch,large,color,#52970c,negative,even,NA,NA,NA
1,0,154,judge,12,6,6,intermixed,switch,large,color,NA,negative,even,arrowup,1,953
1,0,155,cue,12,6,6,intermixed,switch,large,color,#e21212,positive,even,NA,NA,NA
1,0,155,judge,12,6,6,intermixed,switch,large,color,NA,positive,even,arrowdown,1,741
1,0,156,cue,12,6,6,intermixed,switch,large,color,#52970c,positive,even,NA,NA,NA
1,0,156,judge,12,6,6,intermixed,switch,large,color,NA,positive,even,arrowdown,1,1686
1,0,157,cue,12,6,6,intermixed,switch,large,color,#e21212,positive,even,NA,NA,NA
1,0,157,judge,12,6,6,intermixed,switch,large,color,NA,positive,even,arrowdown,1,966
1,0,158,cue,12,6,6,intermixed,switch,large,color,#e21212,positive,even,NA,NA,NA
1,0,158,judge,12,6,6,intermixed,switch,large,color,NA,positive,even,arrowdown,1,3496
1,0,159,cue,12,6,6,intermixed,switch,large,color,#52970c,positive,even,NA,NA,NA
1,0,159,judge,12,6,6,intermixed,switch,large,color,NA,positive,even,arrowdown,1,1581
1,0,160,cue,12,6,6,intermixed,switch,large,color,#e21212,positive,even,NA,NA,NA
1,0,160,judge,12,6,6,intermixed,switch,large,color,NA,positive,even,arrowup,1,764
1,0,161,cue,12,6,6,intermixed,switch,large,color,#52970c,positive,even,NA,NA,NA
1,0,161,judge,12,6,6,intermixed,switch,large,color,NA,positive,even,arrowup,1,2036
1,0,162,cue,12,6,6,intermixed,switch,large,color,#e21212,negative,even,NA,NA,NA
1,0,162,judge,12,6,6,intermixed,switch,large,color,NA,negative,even,arrowdown,1,691
1,0,163,cue,12,6,6,intermixed,switch,large,color,#e21212,negative,even,NA,NA,NA
1,0,163,judge,12,6,6,intermixed,switch,large,color,NA,negative,even,arrowup,1,1224
1,0,164,cue,12,6,6,intermixed,switch,large,color,#52970c,negative,even,NA,NA,NA
1,0,164,judge,12,6,6,intermixed,switch,large,color,NA,negative,even,arrowdown,1,1376
1,0,165,cue,12,6,6,intermixed,switch,large,color,#52970c,positive,even,NA,NA,NA
1,0,165,judge,12,6,6,intermixed,switch,large,color,NA,positive,even,arrowdown,1,828
1,0,166,cue,12,6,6,intermixed,switch,large,color,#52970c,positive,even,NA,NA,NA
1,0,166,judge,12,6,6,intermixed,switch,large,color,NA,positive,even,arrowup,1,1572
1,0,167,cue,12,6,6,intermixed,switch,large,color,#e21212,negative,even,NA,NA,NA
1,0,167,judge,12,6,6,intermixed,switch,large,color,NA,negative,even,arrowdown,1,727
1,0,168,cue,12,6,6,intermixed,switch,large,color,#0eaaaa,neutral,even,NA,NA,NA
1,0,168,judge,12,6,6,intermixed,switch,large,color,NA,neutral,even,arrowdown,1,774
1,0,169,cue,12,6,6,intermixed,switch,large,color,#0eaaaa,neutral,even,NA,NA,NA
1,0,169,judge,12,6,6,intermixed,switch,large,color,NA,neutral,even,arrowdown,1,1533
1,0,170,cue,12,6,6,intermixed,switch,large,color,#0eaaaa,neutral,even,NA,NA,NA
1,0,170,judge,12,6,6,intermixed,switch,large,color,NA,neutral,even,arrowup,1,1355
1,0,171,cue,12,6,6,intermixed,switch,large,color,#e21212,negative,even,NA,NA,NA
1,0,171,judge,12,6,6,intermixed,switch,large,color,NA,negative,even,arrowdown,1,2727
1,0,172,cue,12,6,6,intermixed,switch,large,color,#0eaaaa,neutral,even,NA,NA,NA
1,0,172,judge,12,6,6,intermixed,switch,large,color,NA,neutral,even,arrowup,1,2526
1,0,173,cue,12,6,6,intermixed,switch,large,color,#52970c,positive,even,NA,NA,NA
1,0,173,judge,12,6,6,intermixed,switch,large,color,NA,positive,even,arrowup,1,1664
1,0,174,cue,12,6,6,intermixed,switch,large,color,#e21212,positive,even,NA,NA,NA
1,0,174,judge,12,6,6,intermixed,switch,large,color,NA,positive,even,arrowdown,1,1990
1,0,175,cue,12,6,6,intermixed,switch,large,color,#e21212,negative,even,NA,NA,NA
1,0,175,judge,12,6,6,intermixed,switch,large,color,NA,negative,even,arrowdown,1,1847
1,0,176,cue,12,6,6,intermixed,switch,large,color,#2b5bee,neutral,even,NA,NA,NA
1,0,176,judge,12,6,6,intermixed,switch,large,color,NA,neutral,even,arrowup,1,3437
1,0,177,cue,12,6,6,intermixed,switch,large,color,#0eaaaa,neutral,even,NA,NA,NA
1,0,177,judge,12,6,6,intermixed,switch,large,color,NA,neutral,even,arrowdown,1,2311
1,0,178,cue,12,6,6,intermixed,switch,large,color,#e21212,positive,even,NA,NA,NA
1,0,178,judge,12,6,6,intermixed,switch,large,color,NA,positive,even,arrowup,1,1377
1,0,179,cue,12,6,6,intermixed,switch,large,color,#e713b2,neutral,even,NA,NA,NA
1,0,179,judge,12,6,6,intermixed,switch,large,color,NA,neutral,even,arrowdown,1,2028
1,1,0,cue,12,6,6,separated,switch,large,color,#e21212,positive,even,NA,NA,NA
1,1,0,judge,12,6,6,separated,switch,large,color,NA,positive,even,arrowup,1,1456
1,1,1,cue,12,6,6,separated,switch,large,color,#e21212,positive,even,NA,NA,NA
1,1,1,judge,12,6,6,separated,switch,large,color,NA,positive,even,arrowup,1,653
1,1,2,cue,12,6,6,separated,switch,large,color,#52970c,positive,even,NA,NA,NA
1,1,2,judge,12,6,6,separated,switch,large,color,NA,positive,even,arrowdown,1,1872
1,1,3,cue,12,6,6,separated,switch,large,color,#e21212,positive,even,NA,NA,NA
1,1,3,judge,12,6,6,separated,switch,large,color,NA,positive,even,arrowup,1,1784
1,1,4,cue,12,6,6,separated,switch,large,color,#e21212,negative,even,NA,NA,NA
1,1,4,judge,12,6,6,separated,switch,large,color,NA,negative,even,arrowdown,1,1635
1,1,5,cue,12,6,6,separated,switch,large,color,#ecb718,neutral,even,NA,NA,NA
1,1,5,judge,12,6,6,separated,switch,large,color,NA,neutral,even,arrowup,1,1954
1,1,6,cue,12,6,6,separated,switch,large,color,#0eaaaa,neutral,even,NA,NA,NA
1,1,6,judge,12,6,6,separated,switch,large,color,NA,neutral,even,arrowup,1,3153
1,1,7,cue,12,6,6,separated,switch,large,color,#2b5bee,neutral,even,NA,NA,NA
1,1,7,judge,12,6,6,separated,switch,large,color,NA,neutral,even,arrowup,1,1347
1,1,8,cue,12,6,6,separated,switch,large,color,#ecb718,neutral,even,NA,NA,NA
1,1,8,judge,12,6,6,separated,switch,large,color,NA,neutral,even,arrowup,1,2390
1,1,9,cue,12,6,6,separated,switch,large,color,#e21212,positive,even,NA,NA,NA
1,1,9,judge,12,6,6,separated,switch,large,color,NA,positive,even,arrowup,1,4320
1,1,10,cue,12,6,6,separated,switch,large,color,#0eaaaa,neutral,even,NA,NA,NA
1,1,10,judge,12,6,6,separated,switch,large,color,NA,neutral,even,arrowdown,1,1042
1,1,11,cue,12,6,6,separated,switch,large,color,#52970c,positive,even,NA,NA,NA
1,1,11,judge,12,6,6,separated,switch,large,color,NA,positive,even,arrowdown,1,2222
1,1,12,cue,12,6,6,separated,switch,large,color,#e21212,positive,even,NA,NA,NA
1,1,12,judge,12,6,6,separated,switch,large,color,NA,positive,even,arrowup,1,994
1,1,13,cue,12,6,6,separated,switch,large,color,#e21212,positive,even,NA,NA,NA
1,1,13,judge,12,6,6,separated,switch,large,color,NA,positive,even,arrowup,1,1039
1,1,14,cue,12,6,6,separated,switch,large,color,#e21212,negative,even,NA,NA,NA
1,1,14,judge,12,6,6,separated,switch,large,color,NA,negative,even,arrowup,1,761
1,1,15,cue,12,6,6,separated,switch,large,color,#52970c,negative,even,NA,NA,NA
1,1,15,judge,12,6,6,separated,switch,large,color,NA,negative,even,arrowup,1,1609
1,1,16,cue,12,6,6,separated,switch,large,color,#e21212,negative,even,NA,NA,NA
1,1,16,judge,12,6,6,separated,switch,large,color,NA,negative,even,arrowup,1,1303
1,1,17,cue,12,6,6,separated,switch,large,color,#e21212,negative,even,NA,NA,NA
1,1,17,judge,12,6,6,separated,switch,large,color,NA,negative,even,arrowup,1,1591
1,1,18,cue,12,6,6,separated,switch,large,color,#660fbd,neutral,even,NA,NA,NA
1,1,18,judge,12,6,6,separated,switch,large,color,NA,neutral,even,arrowdown,1,3086
1,1,19,cue,12,6,6,separated,switch,large,color,#e21212,positive,even,NA,NA,NA
1,1,19,judge,12,6,6,separated,switch,large,color,NA,positive,even,arrowdown,1,898
1,1,20,cue,12,6,6,separated,switch,large,color,#52970c,negative,even,NA,NA,NA
1,1,20,judge,12,6,6,separated,switch,large,color,NA,negative,even,arrowup,1,1952
1,1,21,cue,12,6,6,separated,switch,large,color,#52970c,positive,even,NA,NA,NA
1,1,21,judge,12,6,6,separated,switch,large,color,NA,positive,even,arrowdown,1,1787
1,1,22,cue,12,6,6,separated,switch,large,color,#52970c,negative,even,NA,NA,NA
1,1,22,judge,12,6,6,separated,switch,large,color,NA,negative,even,arrowup,1,1652
1,1,23,cue,12,6,6,separated,switch,large,color,#52970c,negative,even,NA,NA,NA
1,1,23,judge,12,6,6,separated,switch,large,color,NA,negative,even,arrowdown,1,1066
1,1,24,cue,12,6,6,separated,switch,large,color,#e21212,positive,even,NA,NA,NA
1,1,24,judge,12,6,6,separated,switch,large,color,NA,positive,even,arrowdown,1,1290
1,1,25,cue,12,6,6,separated,switch,large,color,#2b5bee,neutral,even,NA,NA,NA
1,1,25,judge,12,6,6,separated,switch,large,color,NA,neutral,even,arrowdown,1,1493
1,1,26,cue,12,6,6,separated,switch,large,color,#e21212,positive,even,NA,NA,NA
1,1,26,judge,12,6,6,separated,switch,large,color,NA,positive,even,arrowup,1,1582
1,1,27,cue,12,6,6,separated,switch,large,color,#2b5bee,neutral,even,NA,NA,NA
1,1,27,judge,12,6,6,separated,switch,large,color,NA,neutral,even,arrowdown,1,2046
1,1,28,cue,12,6,6,separated,switch,large,color,#e21212,negative,even,NA,NA,NA
1,1,28,judge,12,6,6,separated,switch,large,color,NA,negative,even,arrowdown,1,1761
1,1,29,cue,12,6,6,separated,switch,large,color,#e21212,negative,even,NA,NA,NA
1,1,29,judge,12,6,6,separated,switch,large,color,NA,negative,even,arrowup,1,1752
1,1,30,cue,12,6,6,separated,switch,large,color,#660fbd,neutral,even,NA,NA,NA
1,1,30,judge,12,6,6,separated,switch,large,color,NA,neutral,even,arrowdown,1,3438
1,1,31,cue,12,6,6,separated,switch,large,color,#ecb718,neutral,even,NA,NA,NA
1,1,31,judge,12,6,6,separated,switch,large,color,NA,neutral,even,arrowup,1,1873
1,1,32,cue,12,6,6,separated,switch,large,color,#52970c,negative,even,NA,NA,NA
1,1,32,judge,12,6,6,separated,switch,large,color,NA,negative,even,arrowdown,1,1277
1,1,33,cue,12,6,6,separated,switch,large,color,#e21212,negative,even,NA,NA,NA
1,1,33,judge,12,6,6,separated,switch,large,color,NA,negative,even,arrowup,1,1350
1,1,34,cue,12,6,6,separated,switch,large,color,#52970c,positive,even,NA,NA,NA
1,1,34,judge,12,6,6,separated,switch,large,color,NA,positive,even,arrowdown,1,1944
1,1,35,cue,12,6,6,separated,switch,large,color,#e21212,positive,even,NA,NA,NA
1,1,35,judge,12,6,6,separated,switch,large,color,NA,positive,even,arrowup,1,1602
1,1,36,cue,12,6,6,separated,switch,large,color,#e21212,negative,even,NA,NA,NA
1,1,36,judge,12,6,6,separated,switch,large,color,NA,negative,even,arrowdown,1,1168
1,1,37,cue,12,6,6,separated,switch,large,color,#e21212,negative,even,NA,NA,NA
1,1,37,judge,12,6,6,separated,switch,large,color,NA,negative,even,arrowdown,1,843
1,1,38,cue,12,6,6,separated,switch,large,color,#ecb718,neutral,even,NA,NA,NA
1,1,38,judge,12,6,6,separated,switch,large,color,NA,neutral,even,arrowdown,1,814
1,1,39,cue,12,6,6,separated,switch,large,color,#e21212,positive,even,NA,NA,NA
1,1,39,judge,12,6,6,separated,switch,large,color,NA,positive,even,arrowdown,1,1339
1,1,40,cue,12,6,6,separated,switch,large,color,#0eaaaa,neutral,even,NA,NA,NA
1,1,40,judge,12,6,6,separated,switch,large,color,NA,neutral,even,arrowdown,1,1497
1,1,41,cue,12,6,6,separated,switch,large,color,#e21212,negative,even,NA,NA,NA
1,1,41,judge,12,6,6,separated,switch,large,color,NA,negative,even,arrowdown,1,767
1,1,42,cue,12,6,6,separated,switch,large,color,#0eaaaa,neutral,even,NA,NA,NA
1,1,42,judge,12,6,6,separated,switch,large,color,NA,neutral,even,arrowup,1,1741
1,1,43,cue,12,6,6,separated,switch,large,color,#e21212,positive,even,NA,NA,NA
1,1,43,judge,12,6,6,separated,switch,large,color,NA,positive,even,arrowdown,1,1001
1,1,44,cue,12,6,6,separated,switch,large,color,#52970c,positive,even,NA,NA,NA
1,1,44,judge,12,6,6,separated,switch,large,color,NA,positive,even,arrowdown,1,3317
1,1,45,cue,12,6,6,separated,switch,large,color,#e21212,negative,even,NA,NA,NA
1,1,45,judge,12,6,6,separated,switch,large,color,NA,negative,even,arrowup,1,1358
1,1,46,cue,12,6,6,separated,switch,large,color,#2b5bee,neutral,even,NA,NA,NA
1,1,46,judge,12,6,6,separated,switch,large,color,NA,neutral,even,arrowup,1,4733
1,1,47,cue,12,6,6,separated,switch,large,color,#e21212,positive,even,NA,NA,NA
1,1,47,judge,12,6,6,separated,switch,large,color,NA,positive,even,arrowdown,1,1649
1,1,48,cue,12,6,6,separated,switch,large,color,#2b5bee,neutral,even,NA,NA,NA
1,1,48,judge,12,6,6,separated,switch,large,color,NA,neutral,even,arrowup,1,676
1,1,49,cue,12,6,6,separated,switch,large,color,#e21212,negative,even,NA,NA,NA
1,1,49,judge,12,6,6,separated,switch,large,color,NA,negative,even,arrowup,1,977
1,1,50,cue,12,6,6,separated,switch,large,color,#52970c,negative,even,NA,NA,NA
1,1,50,judge,12,6,6,separated,switch,large,color,NA,negative,even,arrowup,1,1505
1,1,51,cue,12,6,6,separated,switch,large,color,#e21212,positive,even,NA,NA,NA
1,1,51,judge,12,6,6,separated,switch,large,color,NA,positive,even,arrowdown,1,1888
1,1,52,cue,12,6,6,separated,switch,large,color,#52970c,negative,even,NA,NA,NA
1,1,52,judge,12,6,6,separated,switch,large,color,NA,negative,even,arrowdown,1,1055
1,1,53,cue,12,6,6,separated,switch,large,color,#2b5bee,neutral,even,NA,NA,NA
1,1,53,judge,12,6,6,separated,switch,large,color,NA,neutral,even,arrowdown,1,1625
1,1,54,cue,12,6,6,separated,switch,large,color,#ecb718,neutral,even,NA,NA,NA
1,1,54,judge,12,6,6,separated,switch,large,color,NA,neutral,even,arrowdown,1,1108
1,1,55,cue,12,6,6,separated,switch,large,color,#0eaaaa,neutral,even,NA,NA,NA
1,1,55,judge,12,6,6,separated,switch,large,color,NA,neutral,even,arrowdown,1,4028
1,1,56,cue,12,6,6,separated,switch,large,color,#e21212,negative,even,NA,NA,NA
1,1,56,judge,12,6,6,separated,switch,large,color,NA,negative,even,arrowup,1,2117
1,1,57,cue,12,6,6,separated,switch,large,color,#e21212,positive,even,NA,NA,NA
1,1,57,judge,12,6,6,separated,switch,large,color,NA,positive,even,arrowdown,1,1085
1,1,58,cue,12,6,6,separated,switch,large,color,#660fbd,neutral,even,NA,NA,NA
1,1,58,judge,12,6,6,separated,switch,large,color,NA,neutral,even,arrowup,1,1481
1,1,59,cue,12,6,6,separated,switch,large,color,#52970c,positive,even,NA,NA,NA
1,1,59,judge,12,6,6,separated,switch,large,color,NA,positive,even,arrowdown,1,857
1,1,60,cue,12,6,6,separated,switch,large,color,#ecb718,neutral,even,NA,NA,NA
1,1,60,judge,12,6,6,separated,switch,large,color,NA,neutral,even,arrowup,1,3979
1,1,61,cue,12,6,6,separated,switch,large,color,#52970c,negative,even,NA,NA,NA
1,1,61,judge,12,6,6,separated,switch,large,color,NA,negative,even,arrowup,1,1499
1,1,62,cue,12,6,6,separated,switch,large,color,#ecb718,neutral,even,NA,NA,NA
1,1,62,judge,12,6,6,separated,switch,large,color,NA,neutral,even,arrowup,1,2009
1,1,63,cue,12,6,6,separated,switch,large,color,#e21212,negative,even,NA,NA,NA
1,1,63,judge,12,6,6,separated,switch,large,color,NA,negative,even,arrowup,1,1920
1,1,64,cue,12,6,6,separated,switch,large,color,#e713b2,neutral,even,NA,NA,NA
1,1,64,judge,12,6,6,separated,switch,large,color,NA,neutral,even,arrowup,1,2570
1,1,65,cue,12,6,6,separated,switch,large,color,#52970c,positive,even,NA,NA,NA
1,1,65,judge,12,6,6,separated,switch,large,color,NA,positive,even,arrowdown,1,1934
1,1,66,cue,12,6,6,separated,switch,large,color,#52970c,negative,even,NA,NA,NA
1,1,66,judge,12,6,6,separated,switch,large,color,NA,negative,even,arrowup,1,1132
1,1,67,cue,12,6,6,separated,switch,large,color,#660fbd,neutral,even,NA,NA,NA
1,1,67,judge,12,6,6,separated,switch,large,color,NA,neutral,even,arrowdown,1,1731
1,1,68,cue,12,6,6,separated,switch,large,color,#e21212,negative,even,NA,NA,NA
1,1,68,judge,12,6,6,separated,switch,large,color,NA,negative,even,arrowup,1,1404
1,1,69,cue,12,6,6,separated,switch,large,color,#52970c,positive,even,NA,NA,NA
1,1,69,judge,12,6,6,separated,switch,large,color,NA,positive,even,arrowup,1,1351
1,1,70,cue,12,6,6,separated,switch,large,color,#e21212,negative,even,NA,NA,NA
1,1,70,judge,12,6,6,separated,switch,large,color,NA,negative,even,arrowdown,1,1406
1,1,71,cue,12,6,6,separated,switch,large,color,#e21212,positive,even,NA,NA,NA
1,1,71,judge,12,6,6,separated,switch,large,color,NA,positive,even,arrowup,1,643
1,1,72,cue,12,6,6,separated,switch,large,color,#e713b2,neutral,even,NA,NA,NA
1,1,72,judge,12,6,6,separated,switch,large,color,NA,neutral,even,arrowup,1,2078
1,1,73,cue,12,6,6,separated,switch,large,color,#52970c,positive,even,NA,NA,NA
1,1,73,judge,12,6,6,separated,switch,large,color,NA,positive,even,arrowdown,1,1672
1,1,74,cue,12,6,6,separated,switch,large,color,#52970c,negative,even,NA,NA,NA
1,1,74,judge,12,6,6,separated,switch,large,color,NA,negative,even,arrowdown,1,1129
1,1,75,cue,12,6,6,separated,switch,large,color,#52970c,negative,even,NA,NA,NA
1,1,75,judge,12,6,6,separated,switch,large,color,NA,negative,even,arrowdown,1,1326
1,1,76,cue,12,6,6,separated,switch,large,color,#e21212,positive,even,NA,NA,NA
1,1,76,judge,12,6,6,separated,switch,large,color,NA,positive,even,arrowdown,1,1358
1,1,77,cue,12,6,6,separated,switch,large,color,#e21212,positive,even,NA,NA,NA
1,1,77,judge,12,6,6,separated,switch,large,color,NA,positive,even,arrowdown,1,1287
1,1,78,cue,12,6,6,separated,switch,large,color,#e21212,negative,even,NA,NA,NA
1,1,78,judge,12,6,6,separated,switch,large,color,NA,negative,even,arrowdown,1,1475
1,1,79,cue,12,6,6,separated,switch,large,color,#e21212,negative,even,NA,NA,NA
1,1,79,judge,12,6,6,separated,switch,large,color,NA,negative,even,arrowup,1,861
1,1,80,cue,12,6,6,separated,switch,large,color,#2b5bee,neutral,even,NA,NA,NA
1,1,80,judge,12,6,6,separated,switch,large,color,NA,neutral,even,arrowup,1,2976
1,1,81,cue,12,6,6,separated,switch,large,color,#e21212,positive,even,NA,NA,NA
1,1,81,judge,12,6,6,separated,switch,large,color,NA,positive,even,arrowup,1,935
1,1,82,cue,12,6,6,separated,switch,large,color,#e21212,negative,even,NA,NA,NA
1,1,82,judge,12,6,6,separated,switch,large,color,NA,negative,even,arrowdown,1,818
1,1,83,cue,12,6,6,separated,switch,large,color,#0eaaaa,neutral,even,NA,NA,NA
1,1,83,judge,12,6,6,separated,switch,large,color,NA,neutral,even,arrowup,1,1618
1,1,84,cue,12,6,6,separated,switch,large,color,#52970c,negative,even,NA,NA,NA
1,1,84,judge,12,6,6,separated,switch,large,color,NA,negative,even,arrowdown,1,685
1,1,85,cue,12,6,6,separated,switch,large,color,#ecb718,neutral,even,NA,NA,NA
1,1,85,judge,12,6,6,separated,switch,large,color,NA,neutral,even,arrowup,1,1742
1,1,86,cue,12,6,6,separated,switch,large,color,#e21212,negative,even,NA,NA,NA
1,1,86,judge,12,6,6,separated,switch,large,color,NA,negative,even,arrowdown,1,718
1,1,87,cue,12,6,6,separated,switch,large,color,#e21212,positive,even,NA,NA,NA
1,1,87,judge,12,6,6,separated,switch,large,color,NA,positive,even,arrowup,1,911
1,1,88,cue,12,6,6,separated,switch,large,color,#52970c,positive,even,NA,NA,NA
1,1,88,judge,12,6,6,separated,switch,large,color,NA,positive,even,arrowup,1,839
1,1,89,cue,12,6,6,separated,switch,large,color,#ecb718,neutral,even,NA,NA,NA
1,1,89,judge,12,6,6,separated,switch,large,color,NA,neutral,even,arrowup,1,1013
1,1,90,cue,12,6,6,separated,switch,large,color,#660fbd,neutral,even,NA,NA,NA
1,1,90,judge,12,6,6,separated,switch,large,color,NA,neutral,even,arrowdown,1,1111
1,1,91,cue,12,6,6,separated,switch,large,color,#e21212,negative,even,NA,NA,NA
1,1,91,judge,12,6,6,separated,switch,large,color,NA,negative,even,arrowup,1,1015
1,1,92,cue,12,6,6,separated,switch,large,color,#52970c,positive,even,NA,NA,NA
1,1,92,judge,12,6,6,separated,switch,large,color,NA,positive,even,arrowdown,1,1421
1,1,93,cue,12,6,6,separated,switch,large,color,#e21212,negative,even,NA,NA,NA
1,1,93,judge,12,6,6,separated,switch,large,color,NA,negative,even,arrowdown,1,1406
1,1,94,cue,12,6,6,separated,switch,large,color,#e21212,positive,even,NA,NA,NA
1,1,94,judge,12,6,6,separated,switch,large,color,NA,positive,even,arrowdown,1,883
1,1,95,cue,12,6,6,separated,switch,large,color,#2b5bee,neutral,even,NA,NA,NA
1,1,95,judge,12,6,6,separated,switch,large,color,NA,neutral,even,arrowup,1,3058
1,1,96,cue,12,6,6,separated,switch,large,color,#0eaaaa,neutral,even,NA,NA,NA
1,1,96,judge,12,6,6,separated,switch,large,color,NA,neutral,even,arrowdown,1,3041
1,1,97,cue,12,6,6,separated,switch,large,color,#52970c,negative,even,NA,NA,NA
1,1,97,judge,12,6,6,separated,switch,large,color,NA,negative,even,arrowup,1,973
1,1,98,cue,12,6,6,separated,switch,large,color,#e21212,positive,even,NA,NA,NA
1,1,98,judge,12,6,6,separated,switch,large,color,NA,positive,even,arrowdown,1,1064
1,1,99,cue,12,6,6,separated,switch,large,color,#52970c,positive,even,NA,NA,NA
1,1,99,judge,12,6,6,separated,switch,large,color,NA,positive,even,arrowup,1,1099
1,1,100,cue,12,6,6,separated,switch,large,color,#0eaaaa,neutral,even,NA,NA,NA
1,1,100,judge,12,6,6,separated,switch,large,color,NA,neutral,even,arrowup,1,886
1,1,101,cue,12,6,6,separated,switch,large,color,#e21212,positive,even,NA,NA,NA
1,1,101,judge,12,6,6,separated,switch,large,color,NA,positive,even,arrowdown,1,850
1,1,102,cue,12,6,6,separated,switch,large,color,#52970c,negative,even,NA,NA,NA
1,1,102,judge,12,6,6,separated,switch,large,color,NA,negative,even,arrowdown,1,834
1,1,103,cue,12,6,6,separated,switch,large,color,#e21212,negative,even,NA,NA,NA
1,1,103,judge,12,6,6,separated,switch,large,color,NA,negative,even,arrowup,1,1909
1,1,104,cue,12,6,6,separated,switch,large,color,#52970c,negative,even,NA,NA,NA
1,1,104,judge,12,6,6,separated,switch,large,color,NA,negative,even,arrowdown,1,1369
1,1,105,cue,12,6,6,separated,switch,large,color,#52970c,negative,even,NA,NA,NA
1,1,105,judge,12,6,6,separated,switch,large,color,NA,negative,even,arrowdown,1,725
1,1,106,cue,12,6,6,separated,switch,large,color,#660fbd,neutral,even,NA,NA,NA
1,1,106,judge,12,6,6,separated,switch,large,color,NA,neutral,even,arrowup,1,1244
1,1,107,cue,12,6,6,separated,switch,large,color,#e21212,positive,even,NA,NA,NA
1,1,107,judge,12,6,6,separated,switch,large,color,NA,positive,even,arrowdown,1,1162
1,1,108,cue,12,6,6,separated,switch,large,color,#e21212,positive,even,NA,NA,NA
1,1,108,judge,12,6,6,separated,switch,large,color,NA,positive,even,arrowup,1,1288
1,1,109,cue,12,6,6,separated,switch,large,color,#ecb718,neutral,even,NA,NA,NA
1,1,109,judge,12,6,6,separated,switch,large,color,NA,neutral,even,arrowup,1,2250
1,1,110,cue,12,6,6,separated,switch,large,color,#e21212,negative,even,NA,NA,NA
1,1,110,judge,12,6,6,separated,switch,large,color,NA,negative,even,arrowdown,1,1065
1,1,111,cue,12,6,6,separated,switch,large,color,#660fbd,neutral,even,NA,NA,NA
1,1,111,judge,12,6,6,separated,switch,large,color,NA,neutral,even,arrowup,1,2489
1,1,112,cue,12,6,6,separated,switch,large,color,#e21212,positive,even,NA,NA,NA
1,1,112,judge,12,6,6,separated,switch,large,color,NA,positive,even,arrowdown,1,1113
1,1,113,cue,12,6,6,separated,switch,large,color,#e21212,positive,even,NA,NA,NA
1,1,113,judge,12,6,6,separated,switch,large,color,NA,positive,even,arrowdown,1,1336
1,1,114,cue,12,6,6,separated,switch,large,color,#52970c,positive,even,NA,NA,NA
1,1,114,judge,12,6,6,separated,switch,large,color,NA,positive,even,arrowup,1,795
1,1,115,cue,12,6,6,separated,switch,large,color,#0eaaaa,neutral,even,NA,NA,NA
1,1,115,judge,12,6,6,separated,switch,large,color,NA,neutral,even,arrowup,1,1303
1,1,116,cue,12,6,6,separated,switch,large,color,#52970c,positive,even,NA,NA,NA
1,1,116,judge,12,6,6,separated,switch,large,color,NA,positive,even,arrowup,1,2142
1,1,117,cue,12,6,6,separated,switch,large,color,#e21212,positive,even,NA,NA,NA
1,1,117,judge,12,6,6,separated,switch,large,color,NA,positive,even,arrowdown,1,1483
1,1,118,cue,12,6,6,separated,switch,large,color,#52970c,positive,even,NA,NA,NA
1,1,118,judge,12,6,6,separated,switch,large,color,NA,positive,even,arrowdown,1,1297
1,1,119,cue,12,6,6,separated,switch,large,color,#e21212,positive,even,NA,NA,NA
1,1,119,judge,12,6,6,separated,switch,large,color,NA,positive,even,arrowup,1,1830
1,1,120,cue,12,6,6,separated,switch,large,color,#e21212,negative,even,NA,NA,NA
1,1,120,judge,12,6,6,separated,switch,large,color,NA,negative,even,arrowdown,1,1135
1,1,121,cue,12,6,6,separated,switch,large,color,#52970c,negative,even,NA,NA,NA
1,1,121,judge,12,6,6,separated,switch,large,color,NA,negative,even,arrowup,1,966
1,1,122,cue,12,6,6,separated,switch,large,color,#e21212,negative,even,NA,NA,NA
1,1,122,judge,12,6,6,separated,switch,large,color,NA,negative,even,arrowdown,1,2301
1,1,123,cue,12,6,6,separated,switch,large,color,#0eaaaa,neutral,even,NA,NA,NA
1,1,123,judge,12,6,6,separated,switch,large,color,NA,neutral,even,arrowdown,1,3228
1,1,124,cue,12,6,6,separated,switch,large,color,#52970c,positive,even,NA,NA,NA
1,1,124,judge,12,6,6,separated,switch,large,color,NA,positive,even,arrowup,1,1350
1,1,125,cue,12,6,6,separated,switch,large,color,#e21212,negative,even,NA,NA,NA
1,1,125,judge,12,6,6,separated,switch,large,color,NA,negative,even,arrowup,1,1329
1,1,126,cue,12,6,6,separated,switch,large,color,#e713b2,neutral,even,NA,NA,NA
1,1,126,judge,12,6,6,separated,switch,large,color,NA,neutral,even,arrowup,1,706
1,1,127,cue,12,6,6,separated,switch,large,color,#e21212,positive,even,NA,NA,NA
1,1,127,judge,12,6,6,separated,switch,large,color,NA,positive,even,arrowdown,1,972
1,1,128,cue,12,6,6,separated,switch,large,color,#e21212,positive,even,NA,NA,NA
1,1,128,judge,12,6,6,separated,switch,large,color,NA,positive,even,arrowup,1,1783
1,1,129,cue,12,6,6,separated,switch,large,color,#ecb718,neutral,even,NA,NA,NA
1,1,129,judge,12,6,6,separated,switch,large,color,NA,neutral,even,arrowup,1,805
1,1,130,cue,12,6,6,separated,switch,large,color,#52970c,positive,even,NA,NA,NA
1,1,130,judge,12,6,6,separated,switch,large,color,NA,positive,even,arrowdown,1,1706
1,1,131,cue,12,6,6,separated,switch,large,color,#e713b2,neutral,even,NA,NA,NA
1,1,131,judge,12,6,6,separated,switch,large,color,NA,neutral,even,arrowdown,1,854
1,1,132,cue,12,6,6,separated,switch,large,color,#e21212,positive,even,NA,NA,NA
1,1,132,judge,12,6,6,separated,switch,large,color,NA,positive,even,arrowup,1,1176
1,1,133,cue,12,6,6,separated,switch,large,color,#e21212,negative,even,NA,NA,NA
1,1,133,judge,12,6,6,separated,switch,large,color,NA,negative,even,arrowdown,1,1196
1,1,134,cue,12,6,6,separated,switch,large,color,#e21212,positive,even,NA,NA,NA
1,1,134,judge,12,6,6,separated,switch,large,color,NA,positive,even,arrowup,1,1360
1,1,135,cue,12,6,6,separated,switch,large,color,#ecb718,neutral,even,NA,NA,NA
1,1,135,judge,12,6,6,separated,switch,large,color,NA,neutral,even,arrowup,1,1832
1,1,136,cue,12,6,6,separated,switch,large,color,#52970c,positive,even,NA,NA,NA
1,1,136,judge,12,6,6,separated,switch,large,color,NA,positive,even,arrowdown,1,1418
1,1,137,cue,12,6,6,separated,switch,large,color,#2b5bee,neutral,even,NA,NA,NA
1,1,137,judge,12,6,6,separated,switch,large,color,NA,neutral,even,arrowup,1,1916
1,1,138,cue,12,6,6,separated,switch,large,color,#52970c,negative,even,NA,NA,NA
1,1,138,judge,12,6,6,separated,switch,large,color,NA,negative,even,arrowdown,1,1639
1,1,139,cue,12,6,6,separated,switch,large,color,#2b5bee,neutral,even,NA,NA,NA
1,1,139,judge,12,6,6,separated,switch,large,color,NA,neutral,even,arrowdown,1,2644
1,1,140,cue,12,6,6,separated,switch,large,color,#e21212,negative,even,NA,NA,NA
1,1,140,judge,12,6,6,separated,switch,large,color,NA,negative,even,arrowdown,1,1307
1,1,141,cue,12,6,6,separated,switch,large,color,#660fbd,neutral,even,NA,NA,NA
1,1,141,judge,12,6,6,separated,switch,large,color,NA,neutral,even,arrowdown,1,948
1,1,142,cue,12,6,6,separated,switch,large,color,#e21212,negative,even,NA,NA,NA
1,1,142,judge,12,6,6,separated,switch,large,color,NA,negative,even,arrowdown,1,1676
1,1,143,cue,12,6,6,separated,switch,large,color,#52970c,negative,even,NA,NA,NA
1,1,143,judge,12,6,6,separated,switch,large,color,NA,negative,even,arrowdown,1,953
1,1,144,cue,12,6,6,separated,switch,large,color,#ecb718,neutral,even,NA,NA,NA
1,1,144,judge,12,6,6,separated,switch,large,color,NA,neutral,even,arrowdown,1,1899
1,1,145,cue,12,6,6,separated,switch,large,color,#e21212,positive,even,NA,NA,NA
1,1,145,judge,12,6,6,separated,switch,large,color,NA,positive,even,arrowdown,1,5852
1,1,146,cue,12,6,6,separated,switch,large,color,#e713b2,neutral,even,NA,NA,NA
1,1,146,judge,12,6,6,separated,switch,large,color,NA,neutral,even,arrowup,1,2069
1,1,147,cue,12,6,6,separated,switch,large,color,#e713b2,neutral,even,NA,NA,NA
1,1,147,judge,12,6,6,separated,switch,large,color,NA,neutral,even,arrowup,1,2329
1,1,148,cue,12,6,6,separated,switch,large,color,#52970c,positive,even,NA,NA,NA
1,1,148,judge,12,6,6,separated,switch,large,color,NA,positive,even,arrowup,1,991
1,1,149,cue,12,6,6,separated,switch,large,color,#52970c,negative,even,NA,NA,NA
1,1,149,judge,12,6,6,separated,switch,large,color,NA,negative,even,arrowdown,1,718
1,1,150,cue,12,6,6,separated,switch,large,color,#e21212,negative,even,NA,NA,NA
1,1,150,judge,12,6,6,separated,switch,large,color,NA,negative,even,arrowup,1,782
1,1,151,cue,12,6,6,separated,switch,large,color,#52970c,positive,even,NA,NA,NA
1,1,151,judge,12,6,6,separated,switch,large,color,NA,positive,even,arrowup,1,1136
1,1,152,cue,12,6,6,separated,switch,large,color,#e21212,negative,even,NA,NA,NA
1,1,152,judge,12,6,6,separated,switch,large,color,NA,negative,even,arrowdown,1,1698
1,1,153,cue,12,6,6,separated,switch,large,color,#e21212,positive,even,NA,NA,NA
1,1,153,judge,12,6,6,separated,switch,large,color,NA,positive,even,arrowdown,1,1017
1,1,154,cue,12,6,6,separated,switch,large,color,#e21212,positive,even,NA,NA,NA
1,1,154,judge,12,6,6,separated,switch,large,color,NA,positive,even,arrowup,1,979
1,1,155,cue,12,6,6,separated,switch,large,color,#0eaaaa,neutral,even,NA,NA,NA
1,1,155,judge,12,6,6,separated,switch,large,color,NA,neutral,even,arrowdown,1,2099
1,1,156,cue,12,6,6,separated,switch,large,color,#e21212,negative,even,NA,NA,NA
1,1,156,judge,12,6,6,separated,switch,large,color,NA,negative,even,arrowup,1,2041
1,1,157,cue,12,6,6,separated,switch,large,color,#2b5bee,neutral,even,NA,NA,NA
1,1,157,judge,12,6,6,separated,switch,large,color,NA,neutral,even,arrowdown,1,1819
1,1,158,cue,12,6,6,separated,switch,large,color,#e21212,negative,even,NA,NA,NA
1,1,158,judge,12,6,6,separated,switch,large,color,NA,negative,even,arrowdown,1,816
1,1,159,cue,12,6,6,separated,switch,large,color,#52970c,negative,even,NA,NA,NA
1,1,159,judge,12,6,6,separated,switch,large,color,NA,negative,even,arrowdown,1,1540
1,1,160,cue,12,6,6,separated,switch,large,color,#ecb718,neutral,even,NA,NA,NA
1,1,160,judge,12,6,6,separated,switch,large,color,NA,neutral,even,arrowdown,1,2053
1,1,161,cue,12,6,6,separated,switch,large,color,#e21212,positive,even,NA,NA,NA
1,1,161,judge,12,6,6,separated,switch,large,color,NA,positive,even,arrowdown,1,1416
1,1,162,cue,12,6,6,separated,switch,large,color,#e713b2,neutral,even,NA,NA,NA
1,1,162,judge,12,6,6,separated,switch,large,color,NA,neutral,even,arrowdown,1,1827
1,1,163,cue,12,6,6,separated,switch,large,color,#ecb718,neutral,even,NA,NA,NA
1,1,163,judge,12,6,6,separated,switch,large,color,NA,neutral,even,arrowup,1,2280
1,1,164,cue,12,6,6,separated,switch,large,color,#e21212,positive,even,NA,NA,NA
1,1,164,judge,12,6,6,separated,switch,large,color,NA,positive,even,arrowup,1,1734
1,1,165,cue,12,6,6,separated,switch,large,color,#2b5bee,neutral,even,NA,NA,NA
1,1,165,judge,12,6,6,separated,switch,large,color,NA,neutral,even,arrowdown,1,4998
1,1,166,cue,12,6,6,separated,switch,large,color,#2b5bee,neutral,even,NA,NA,NA
1,1,166,judge,12,6,6,separated,switch,large,color,NA,neutral,even,arrowdown,1,1268
1,1,167,cue,12,6,6,separated,switch,large,color,#e21212,negative,even,NA,NA,NA
1,1,167,judge,12,6,6,separated,switch,large,color,NA,negative,even,arrowup,1,853
1,1,168,cue,12,6,6,separated,switch,large,color,#660fbd,neutral,even,NA,NA,NA
1,1,168,judge,12,6,6,separated,switch,large,color,NA,neutral,even,arrowup,1,1575
1,1,169,cue,12,6,6,separated,switch,large,color,#ecb718,neutral,even,NA,NA,NA
1,1,169,judge,12,6,6,separated,switch,large,color,NA,neutral,even,arrowdown,1,1324
1,1,170,cue,12,6,6,separated,switch,large,color,#e21212,negative,even,NA,NA,NA
1,1,170,judge,12,6,6,separated,switch,large,color,NA,negative,even,arrowdown,1,2071
1,1,171,cue,12,6,6,separated,switch,large,color,#52970c,negative,even,NA,NA,NA
1,1,171,judge,12,6,6,separated,switch,large,color,NA,negative,even,arrowup,1,804
1,1,172,cue,12,6,6,separated,switch,large,color,#660fbd,neutral,even,NA,NA,NA
1,1,172,judge,12,6,6,separated,switch,large,color,NA,neutral,even,arrowdown,1,954
1,1,173,cue,12,6,6,separated,switch,large,color,#660fbd,neutral,even,NA,NA,NA
1,1,173,judge,12,6,6,separated,switch,large,color,NA,neutral,even,arrowdown,1,2657
1,1,174,cue,12,6,6,separated,switch,large,color,#52970c,negative,even,NA,NA,NA
1,1,174,judge,12,6,6,separated,switch,large,color,NA,negative,even,arrowup,1,1182
1,1,175,cue,12,6,6,separated,switch,large,color,#e21212,positive,even,NA,NA,NA
1,1,175,judge,12,6,6,separated,switch,large,color,NA,positive,even,arrowdown,1,1936
1,1,176,cue,12,6,6,separated,switch,large,color,#52970c,negative,even,NA,NA,NA
1,1,176,judge,12,6,6,separated,switch,large,color,NA,negative,even,arrowdown,1,1197
1,1,177,cue,12,6,6,separated,switch,large,color,#660fbd,neutral,even,NA,NA,NA
1,1,177,judge,12,6,6,separated,switch,large,color,NA,neutral,even,arrowup,1,1645
1,1,178,cue,12,6,6,separated,switch,large,color,#e21212,positive,even,NA,NA,NA
1,1,178,judge,12,6,6,separated,switch,large,color,NA,positive,even,arrowup,1,699
1,1,179,cue,12,6,6,separated,switch,large,color,#0eaaaa,neutral,even,NA,NA,NA
1,1,179,judge,12,6,6,separated,switch,large,color,NA,neutral,even,arrowdown,1,2238
2,0,0,cue,12,6,6,intermixed,switch,large,color,#2b5bee,positive,even,NA,NA,NA
2,0,0,judge,12,6,6,intermixed,switch,large,color,NA,positive,even,arrowup,1,2540
2,0,1,cue,12,6,6,intermixed,switch,large,color,#e21212,negative,even,NA,NA,NA
2,0,1,judge,12,6,6,intermixed,switch,large,color,NA,negative,even,arrowup,1,1651
2,0,2,cue,12,6,6,intermixed,switch,large,color,#2b5bee,positive,even,NA,NA,NA
2,0,2,judge,12,6,6,intermixed,switch,large,color,NA,positive,even,arrowup,1,877
2,0,3,cue,12,6,6,intermixed,switch,large,color,#660fbd,neutral,even,NA,NA,NA
2,0,3,judge,12,6,6,intermixed,switch,large,color,NA,neutral,even,arrowdown,1,1387
2,0,4,cue,12,6,6,intermixed,switch,large,color,#2b5bee,positive,even,NA,NA,NA
2,0,4,judge,12,6,6,intermixed,switch,large,color,NA,positive,even,arrowup,1,1721
2,0,5,cue,12,6,6,intermixed,switch,large,color,#660fbd,neutral,even,NA,NA,NA
2,0,5,judge,12,6,6,intermixed,switch,large,color,NA,neutral,even,arrowdown,1,4084
2,0,6,cue,12,6,6,intermixed,switch,large,color,#e713b2,neutral,even,NA,NA,NA
2,0,6,judge,12,6,6,intermixed,switch,large,color,NA,neutral,even,arrowdown,1,2200
2,0,7,cue,12,6,6,intermixed,switch,large,color,#52970c,neutral,even,NA,NA,NA
2,0,7,judge,12,6,6,intermixed,switch,large,color,NA,neutral,even,arrowdown,1,1628
2,0,8,cue,12,6,6,intermixed,switch,large,color,#660fbd,neutral,even,NA,NA,NA
2,0,8,judge,12,6,6,intermixed,switch,large,color,NA,neutral,even,arrowup,1,2760
2,0,9,cue,12,6,6,intermixed,switch,large,color,#e21212,positive,even,NA,NA,NA
2,0,9,judge,12,6,6,intermixed,switch,large,color,NA,positive,even,arrowdown,1,1902
2,0,10,cue,12,6,6,intermixed,switch,large,color,#e21212,negative,even,NA,NA,NA
2,0,10,judge,12,6,6,intermixed,switch,large,color,NA,negative,even,arrowdown,1,2254
2,0,11,cue,12,6,6,intermixed,switch,large,color,#ecb718,neutral,even,NA,NA,NA
2,0,11,judge,12,6,6,intermixed,switch,large,color,NA,neutral,even,arrowdown,1,3809
2,0,12,cue,12,6,6,intermixed,switch,large,color,#e713b2,neutral,even,NA,NA,NA
2,0,12,judge,12,6,6,intermixed,switch,large,color,NA,neutral,even,arrowdown,1,1309
2,0,13,cue,12,6,6,intermixed,switch,large,color,#ecb718,neutral,even,NA,NA,NA
2,0,13,judge,12,6,6,intermixed,switch,large,color,NA,neutral,even,arrowup,1,1364
2,0,14,cue,12,6,6,intermixed,switch,large,color,#ecb718,neutral,even,NA,NA,NA
2,0,14,judge,12,6,6,intermixed,switch,large,color,NA,neutral,even,arrowup,1,1948
2,0,15,cue,12,6,6,intermixed,switch,large,color,#660fbd,neutral,even,NA,NA,NA
2,0,15,judge,12,6,6,intermixed,switch,large,color,NA,neutral,even,arrowup,1,1763
2,0,16,cue,12,6,6,intermixed,switch,large,color,#2b5bee,negative,even,NA,NA,NA
2,0,16,judge,12,6,6,intermixed,switch,large,color,NA,negative,even,arrowdown,1,2450
2,0,17,cue,12,6,6,intermixed,switch,large,color,#e21212,negative,even,NA,NA,NA
2,0,17,judge,12,6,6,intermixed,switch,large,color,NA,negative,even,arrowup,1,967
2,0,18,cue,12,6,6,intermixed,switch,large,color,#e21212,positive,even,NA,NA,NA
2,0,18,judge,12,6,6,intermixed,switch,large,color,NA,positive,even,arrowdown,1,1805
2,0,19,cue,12,6,6,intermixed,switch,large,color,#e21212,positive,even,NA,NA,NA
2,0,19,judge,12,6,6,intermixed,switch,large,color,NA,positive,even,arrowup,1,784
2,0,20,cue,12,6,6,intermixed,switch,large,color,#52970c,neutral,even,NA,NA,NA
2,0,20,judge,12,6,6,intermixed,switch,large,color,NA,neutral,even,arrowup,1,1121
2,0,21,cue,12,6,6,intermixed,switch,large,color,#e21212,negative,even,NA,NA,NA
2,0,21,judge,12,6,6,intermixed,switch,large,color,NA,negative,even,arrowup,1,1549
2,0,22,cue,12,6,6,intermixed,switch,large,color,#e21212,negative,even,NA,NA,NA
2,0,22,judge,12,6,6,intermixed,switch,large,color,NA,negative,even,arrowdown,1,2421
2,0,23,cue,12,6,6,intermixed,switch,large,color,#e21212,negative,even,NA,NA,NA
2,0,23,judge,12,6,6,intermixed,switch,large,color,NA,negative,even,arrowup,1,986
2,0,24,cue,12,6,6,intermixed,switch,large,color,#e21212,negative,even,NA,NA,NA
2,0,24,judge,12,6,6,intermixed,switch,large,color,NA,negative,even,arrowup,1,5596
2,0,25,cue,12,6,6,intermixed,switch,large,color,#2b5bee,positive,even,NA,NA,NA
2,0,25,judge,12,6,6,intermixed,switch,large,color,NA,positive,even,arrowup,1,1761
2,0,26,cue,12,6,6,intermixed,switch,large,color,#2b5bee,positive,even,NA,NA,NA
2,0,26,judge,12,6,6,intermixed,switch,large,color,NA,positive,even,arrowup,1,2520
2,0,27,cue,12,6,6,intermixed,switch,large,color,#e713b2,neutral,even,NA,NA,NA
2,0,27,judge,12,6,6,intermixed,switch,large,color,NA,neutral,even,arrowdown,1,1013
2,0,28,cue,12,6,6,intermixed,switch,large,color,#ecb718,neutral,even,NA,NA,NA
2,0,28,judge,12,6,6,intermixed,switch,large,color,NA,neutral,even,arrowup,1,2956
2,0,29,cue,12,6,6,intermixed,switch,large,color,#660fbd,neutral,even,NA,NA,NA
2,0,29,judge,12,6,6,intermixed,switch,large,color,NA,neutral,even,arrowup,1,2928
2,0,30,cue,12,6,6,intermixed,switch,large,color,#ecb718,neutral,even,NA,NA,NA
2,0,30,judge,12,6,6,intermixed,switch,large,color,NA,neutral,even,arrowdown,1,4192
2,0,31,cue,12,6,6,intermixed,switch,large,color,#2b5bee,positive,even,NA,NA,NA
2,0,31,judge,12,6,6,intermixed,switch,large,color,NA,positive,even,arrowdown,1,1636
2,0,32,cue,12,6,6,intermixed,switch,large,color,#e21212,negative,even,NA,NA,NA
2,0,32,judge,12,6,6,intermixed,switch,large,color,NA,negative,even,arrowup,1,1821
2,0,33,cue,12,6,6,intermixed,switch,large,color,#2b5bee,negative,even,NA,NA,NA
2,0,33,judge,12,6,6,intermixed,switch,large,color,NA,negative,even,arrowdown,1,1529
2,0,34,cue,12,6,6,intermixed,switch,large,color,#e21212,negative,even,NA,NA,NA
2,0,34,judge,12,6,6,intermixed,switch,large,color,NA,negative,even,arrowdown,1,2092
2,0,35,cue,12,6,6,intermixed,switch,large,color,#ecb718,neutral,even,NA,NA,NA
2,0,35,judge,12,6,6,intermixed,switch,large,color,NA,neutral,even,arrowdown,1,2556
2,0,36,cue,12,6,6,intermixed,switch,large,color,#0eaaaa,neutral,even,NA,NA,NA
2,0,36,judge,12,6,6,intermixed,switch,large,color,NA,neutral,even,arrowdown,1,1104
2,0,37,cue,12,6,6,intermixed,switch,large,color,#e21212,positive,even,NA,NA,NA
2,0,37,judge,12,6,6,intermixed,switch,large,color,NA,positive,even,arrowup,1,1176
2,0,38,cue,12,6,6,intermixed,switch,large,color,#ecb718,neutral,even,NA,NA,NA
2,0,38,judge,12,6,6,intermixed,switch,large,color,NA,neutral,even,arrowdown,1,2679
2,0,39,cue,12,6,6,intermixed,switch,large,color,#2b5bee,negative,even,NA,NA,NA
2,0,39,judge,12,6,6,intermixed,switch,large,color,NA,negative,even,arrowup,1,1496
2,0,40,cue,12,6,6,intermixed,switch,large,color,#660fbd,neutral,even,NA,NA,NA
2,0,40,judge,12,6,6,intermixed,switch,large,color,NA,neutral,even,arrowup,1,3424
2,0,41,cue,12,6,6,intermixed,switch,large,color,#2b5bee,negative,even,NA,NA,NA
2,0,41,judge,12,6,6,intermixed,switch,large,color,NA,negative,even,arrowup,1,1552
2,0,42,cue,12,6,6,intermixed,switch,large,color,#e713b2,neutral,even,NA,NA,NA
2,0,42,judge,12,6,6,intermixed,switch,large,color,NA,neutral,even,arrowdown,1,3149
2,0,43,cue,12,6,6,intermixed,switch,large,color,#e21212,positive,even,NA,NA,NA
2,0,43,judge,12,6,6,intermixed,switch,large,color,NA,positive,even,arrowup,1,2013
2,0,44,cue,12,6,6,intermixed,switch,large,color,#2b5bee,positive,even,NA,NA,NA
2,0,44,judge,12,6,6,intermixed,switch,large,color,NA,positive,even,arrowup,1,847
2,0,45,cue,12,6,6,intermixed,switch,large,color,#2b5bee,negative,even,NA,NA,NA
2,0,45,judge,12,6,6,intermixed,switch,large,color,NA,negative,even,arrowdown,1,1333
2,0,46,cue,12,6,6,intermixed,switch,large,color,#2b5bee,negative,even,NA,NA,NA
2,0,46,judge,12,6,6,intermixed,switch,large,color,NA,negative,even,arrowdown,1,1564
2,0,47,cue,12,6,6,intermixed,switch,large,color,#e713b2,neutral,even,NA,NA,NA
2,0,47,judge,12,6,6,intermixed,switch,large,color,NA,neutral,even,arrowup,1,1717
2,0,48,cue,12,6,6,intermixed,switch,large,color,#ecb718,neutral,even,NA,NA,NA
2,0,48,judge,12,6,6,intermixed,switch,large,color,NA,neutral,even,arrowdown,1,1728
2,0,49,cue,12,6,6,intermixed,switch,large,color,#52970c,neutral,even,NA,NA,NA
2,0,49,judge,12,6,6,intermixed,switch,large,color,NA,neutral,even,arrowdown,1,1071
2,0,50,cue,12,6,6,intermixed,switch,large,color,#0eaaaa,neutral,even,NA,NA,NA
2,0,50,judge,12,6,6,intermixed,switch,large,color,NA,neutral,even,arrowup,1,1341
2,0,51,cue,12,6,6,intermixed,switch,large,color,#e21212,negative,even,NA,NA,NA
2,0,51,judge,12,6,6,intermixed,switch,large,color,NA,negative,even,arrowdown,1,796
2,0,52,cue,12,6,6,intermixed,switch,large,color,#0eaaaa,neutral,even,NA,NA,NA
2,0,52,judge,12,6,6,intermixed,switch,large,color,NA,neutral,even,arrowdown,1,4182
2,0,53,cue,12,6,6,intermixed,switch,large,color,#2b5bee,positive,even,NA,NA,NA
2,0,53,judge,12,6,6,intermixed,switch,large,color,NA,positive,even,arrowdown,1,971
2,0,54,cue,12,6,6,intermixed,switch,large,color,#2b5bee,negative,even,NA,NA,NA
2,0,54,judge,12,6,6,intermixed,switch,large,color,NA,negative,even,arrowup,1,1615
2,0,55,cue,12,6,6,intermixed,switch,large,color,#2b5bee,positive,even,NA,NA,NA
2,0,55,judge,12,6,6,intermixed,switch,large,color,NA,positive,even,arrowup,1,1217
2,0,56,cue,12,6,6,intermixed,switch,large,color,#e21212,negative,even,NA,NA,NA
2,0,56,judge,12,6,6,intermixed,switch,large,color,NA,negative,even,arrowup,1,2078
2,0,57,cue,12,6,6,intermixed,switch,large,color,#0eaaaa,neutral,even,NA,NA,NA
2,0,57,judge,12,6,6,intermixed,switch,large,color,NA,neutral,even,arrowdown,1,1820
2,0,58,cue,12,6,6,intermixed,switch,large,color,#e21212,positive,even,NA,NA,NA
2,0,58,judge,12,6,6,intermixed,switch,large,color,NA,positive,even,arrowup,1,999
2,0,59,cue,12,6,6,intermixed,switch,large,color,#e713b2,neutral,even,NA,NA,NA
2,0,59,judge,12,6,6,intermixed,switch,large,color,NA,neutral,even,arrowdown,1,2589
2,0,60,cue,12,6,6,intermixed,switch,large,color,#2b5bee,positive,even,NA,NA,NA
2,0,60,judge,12,6,6,intermixed,switch,large,color,NA,positive,even,arrowdown,1,1353
2,0,61,cue,12,6,6,intermixed,switch,large,color,#e21212,positive,even,NA,NA,NA
2,0,61,judge,12,6,6,intermixed,switch,large,color,NA,positive,even,arrowdown,1,1483
2,0,62,cue,12,6,6,intermixed,switch,large,color,#52970c,neutral,even,NA,NA,NA
2,0,62,judge,12,6,6,intermixed,switch,large,color,NA,neutral,even,arrowdown,1,2426
2,0,63,cue,12,6,6,intermixed,switch,large,color,#e21212,positive,even,NA,NA,NA
2,0,63,judge,12,6,6,intermixed,switch,large,color,NA,positive,even,arrowdown,1,1354
2,0,64,cue,12,6,6,intermixed,switch,large,color,#2b5bee,negative,even,NA,NA,NA
2,0,64,judge,12,6,6,intermixed,switch,large,color,NA,negative,even,arrowup,1,773
2,0,65,cue,12,6,6,intermixed,switch,large,color,#2b5bee,negative,even,NA,NA,NA
2,0,65,judge,12,6,6,intermixed,switch,large,color,NA,negative,even,arrowup,1,1708
2,0,66,cue,12,6,6,intermixed,switch,large,color,#2b5bee,negative,even,NA,NA,NA
2,0,66,judge,12,6,6,intermixed,switch,large,color,NA,negative,even,arrowup,1,1245
2,0,67,cue,12,6,6,intermixed,switch,large,color,#e21212,positive,even,NA,NA,NA
2,0,67,judge,12,6,6,intermixed,switch,large,color,NA,positive,even,arrowdown,1,1052
2,0,68,cue,12,6,6,intermixed,switch,large,color,#0eaaaa,neutral,even,NA,NA,NA
2,0,68,judge,12,6,6,intermixed,switch,large,color,NA,neutral,even,arrowdown,1,1687
2,0,69,cue,12,6,6,intermixed,switch,large,color,#ecb718,neutral,even,NA,NA,NA
2,0,69,judge,12,6,6,intermixed,switch,large,color,NA,neutral,even,arrowup,1,1159
2,0,70,cue,12,6,6,intermixed,switch,large,color,#e21212,positive,even,NA,NA,NA
2,0,70,judge,12,6,6,intermixed,switch,large,color,NA,positive,even,arrowdown,1,1033
2,0,71,cue,12,6,6,intermixed,switch,large,color,#2b5bee,negative,even,NA,NA,NA
2,0,71,judge,12,6,6,intermixed,switch,large,color,NA,negative,even,arrowdown,1,717
2,0,72,cue,12,6,6,intermixed,switch,large,color,#e21212,positive,even,NA,NA,NA
2,0,72,judge,12,6,6,intermixed,switch,large,color,NA,positive,even,arrowup,1,1494
2,0,73,cue,12,6,6,intermixed,switch,large,color,#2b5bee,negative,even,NA,NA,NA
2,0,73,judge,12,6,6,intermixed,switch,large,color,NA,negative,even,arrowdown,1,958
2,0,74,cue,12,6,6,intermixed,switch,large,color,#52970c,neutral,even,NA,NA,NA
2,0,74,judge,12,6,6,intermixed,switch,large,color,NA,neutral,even,arrowdown,1,1498
2,0,75,cue,12,6,6,intermixed,switch,large,color,#e713b2,neutral,even,NA,NA,NA
2,0,75,judge,12,6,6,intermixed,switch,large,color,NA,neutral,even,arrowup,1,2257
2,0,76,cue,12,6,6,intermixed,switch,large,color,#2b5bee,negative,even,NA,NA,NA
2,0,76,judge,12,6,6,intermixed,switch,large,color,NA,negative,even,arrowdown,1,1003
2,0,77,cue,12,6,6,intermixed,switch,large,color,#e21212,negative,even,NA,NA,NA
2,0,77,judge,12,6,6,intermixed,switch,large,color,NA,negative,even,arrowup,1,1165
2,0,78,cue,12,6,6,intermixed,switch,large,color,#52970c,neutral,even,NA,NA,NA
2,0,78,judge,12,6,6,intermixed,switch,large,color,NA,neutral,even,arrowdown,1,841
2,0,79,cue,12,6,6,intermixed,switch,large,color,#e21212,positive,even,NA,NA,NA
2,0,79,judge,12,6,6,intermixed,switch,large,color,NA,positive,even,arrowdown,1,1593
2,0,80,cue,12,6,6,intermixed,switch,large,color,#e713b2,neutral,even,NA,NA,NA
2,0,80,judge,12,6,6,intermixed,switch,large,color,NA,neutral,even,arrowdown,1,1935
2,0,81,cue,12,6,6,intermixed,switch,large,color,#e21212,negative,even,NA,NA,NA
2,0,81,judge,12,6,6,intermixed,switch,large,color,NA,negative,even,arrowup,1,1104
2,0,82,cue,12,6,6,intermixed,switch,large,color,#e21212,negative,even,NA,NA,NA
2,0,82,judge,12,6,6,intermixed,switch,large,color,NA,negative,even,arrowdown,1,1300
2,0,83,cue,12,6,6,intermixed,switch,large,color,#52970c,neutral,even,NA,NA,NA
2,0,83,judge,12,6,6,intermixed,switch,large,color,NA,neutral,even,arrowdown,1,2336
2,0,84,cue,12,6,6,intermixed,switch,large,color,#2b5bee,positive,even,NA,NA,NA
2,0,84,judge,12,6,6,intermixed,switch,large,color,NA,positive,even,arrowdown,1,683
2,0,85,cue,12,6,6,intermixed,switch,large,color,#2b5bee,positive,even,NA,NA,NA
2,0,85,judge,12,6,6,intermixed,switch,large,color,NA,positive,even,arrowup,1,846
2,0,86,cue,12,6,6,intermixed,switch,large,color,#e21212,positive,even,NA,NA,NA
2,0,86,judge,12,6,6,intermixed,switch,large,color,NA,positive,even,arrowup,1,697
2,0,87,cue,12,6,6,intermixed,switch,large,color,#2b5bee,positive,even,NA,NA,NA
2,0,87,judge,12,6,6,intermixed,switch,large,color,NA,positive,even,arrowdown,1,690
2,0,88,cue,12,6,6,intermixed,switch,large,color,#2b5bee,positive,even,NA,NA,NA
2,0,88,judge,12,6,6,intermixed,switch,large,color,NA,positive,even,arrowdown,1,1562
2,0,89,cue,12,6,6,intermixed,switch,large,color,#660fbd,neutral,even,NA,NA,NA
2,0,89,judge,12,6,6,intermixed,switch,large,color,NA,neutral,even,arrowdown,1,854
2,0,90,cue,12,6,6,intermixed,switch,large,color,#e21212,negative,even,NA,NA,NA
2,0,90,judge,12,6,6,intermixed,switch,large,color,NA,negative,even,arrowdown,1,1153
2,0,91,cue,12,6,6,intermixed,switch,large,color,#2b5bee,negative,even,NA,NA,NA
2,0,91,judge,12,6,6,intermixed,switch,large,color,NA,negative,even,arrowup,1,1255
2,0,92,cue,12,6,6,intermixed,switch,large,color,#e21212,positive,even,NA,NA,NA
2,0,92,judge,12,6,6,intermixed,switch,large,color,NA,positive,even,arrowdown,1,1061
2,0,93,cue,12,6,6,intermixed,switch,large,color,#52970c,neutral,even,NA,NA,NA
2,0,93,judge,12,6,6,intermixed,switch,large,color,NA,neutral,even,arrowup,1,3650
2,0,94,cue,12,6,6,intermixed,switch,large,color,#52970c,neutral,even,NA,NA,NA
2,0,94,judge,12,6,6,intermixed,switch,large,color,NA,neutral,even,arrowup,1,1439
2,0,95,cue,12,6,6,intermixed,switch,large,color,#e21212,positive,even,NA,NA,NA
2,0,95,judge,12,6,6,intermixed,switch,large,color,NA,positive,even,arrowup,1,694
2,0,96,cue,12,6,6,intermixed,switch,large,color,#0eaaaa,neutral,even,NA,NA,NA
2,0,96,judge,12,6,6,intermixed,switch,large,color,NA,neutral,even,arrowdown,1,2065
2,0,97,cue,12,6,6,intermixed,switch,large,color,#2b5bee,negative,even,NA,NA,NA
2,0,97,judge,12,6,6,intermixed,switch,large,color,NA,negative,even,arrowdown,1,594
2,0,98,cue,12,6,6,intermixed,switch,large,color,#2b5bee,positive,even,NA,NA,NA
2,0,98,judge,12,6,6,intermixed,switch,large,color,NA,positive,even,arrowup,1,1186
2,0,99,cue,12,6,6,intermixed,switch,large,color,#e21212,negative,even,NA,NA,NA
2,0,99,judge,12,6,6,intermixed,switch,large,color,NA,negative,even,arrowdown,1,806
2,0,100,cue,12,6,6,intermixed,switch,large,color,#e21212,negative,even,NA,NA,NA
2,0,100,judge,12,6,6,intermixed,switch,large,color,NA,negative,even,arrowdown,1,926
2,0,101,cue,12,6,6,intermixed,switch,large,color,#e21212,negative,even,NA,NA,NA
2,0,101,judge,12,6,6,intermixed,switch,large,color,NA,negative,even,arrowup,1,803
2,0,102,cue,12,6,6,intermixed,switch,large,color,#2b5bee,negative,even,NA,NA,NA
2,0,102,judge,12,6,6,intermixed,switch,large,color,NA,negative,even,arrowup,1,1263
2,0,103,cue,12,6,6,intermixed,switch,large,color,#e21212,negative,even,NA,NA,NA
2,0,103,judge,12,6,6,intermixed,switch,large,color,NA,negative,even,arrowdown,1,1391
2,0,104,cue,12,6,6,intermixed,switch,large,color,#2b5bee,positive,even,NA,NA,NA
2,0,104,judge,12,6,6,intermixed,switch,large,color,NA,positive,even,arrowdown,1,1097
2,0,105,cue,12,6,6,intermixed,switch,large,color,#0eaaaa,neutral,even,NA,NA,NA
2,0,105,judge,12,6,6,intermixed,switch,large,color,NA,neutral,even,arrowdown,1,1526
2,0,106,cue,12,6,6,intermixed,switch,large,color,#e21212,negative,even,NA,NA,NA
2,0,106,judge,12,6,6,intermixed,switch,large,color,NA,negative,even,arrowup,1,1733
2,0,107,cue,12,6,6,intermixed,switch,large,color,#e21212,positive,even,NA,NA,NA
2,0,107,judge,12,6,6,intermixed,switch,large,color,NA,positive,even,arrowdown,1,1044
2,0,108,cue,12,6,6,intermixed,switch,large,color,#e21212,positive,even,NA,NA,NA
2,0,108,judge,12,6,6,intermixed,switch,large,color,NA,positive,even,arrowdown,1,870
2,0,109,cue,12,6,6,intermixed,switch,large,color,#2b5bee,negative,even,NA,NA,NA
2,0,109,judge,12,6,6,intermixed,switch,large,color,NA,negative,even,arrowdown,1,1343
2,0,110,cue,12,6,6,intermixed,switch,large,color,#2b5bee,positive,even,NA,NA,NA
2,0,110,judge,12,6,6,intermixed,switch,large,color,NA,positive,even,arrowup,1,2166
2,0,111,cue,12,6,6,intermixed,switch,large,color,#660fbd,neutral,even,NA,NA,NA
2,0,111,judge,12,6,6,intermixed,switch,large,color,NA,neutral,even,arrowdown,1,2190
2,0,112,cue,12,6,6,intermixed,switch,large,color,#e713b2,neutral,even,NA,NA,NA
2,0,112,judge,12,6,6,intermixed,switch,large,color,NA,neutral,even,arrowup,1,1923
2,0,113,cue,12,6,6,intermixed,switch,large,color,#e21212,negative,even,NA,NA,NA
2,0,113,judge,12,6,6,intermixed,switch,large,color,NA,negative,even,arrowup,1,1348
2,0,114,cue,12,6,6,intermixed,switch,large,color,#2b5bee,positive,even,NA,NA,NA
2,0,114,judge,12,6,6,intermixed,switch,large,color,NA,positive,even,arrowup,1,1239
2,0,115,cue,12,6,6,intermixed,switch,large,color,#2b5bee,positive,even,NA,NA,NA
2,0,115,judge,12,6,6,intermixed,switch,large,color,NA,positive,even,arrowdown,1,1315
2,0,116,cue,12,6,6,intermixed,switch,large,color,#e713b2,neutral,even,NA,NA,NA
2,0,116,judge,12,6,6,intermixed,switch,large,color,NA,neutral,even,arrowup,1,2542
2,0,117,cue,12,6,6,intermixed,switch,large,color,#e21212,negative,even,NA,NA,NA
2,0,117,judge,12,6,6,intermixed,switch,large,color,NA,negative,even,arrowdown,1,1920
2,0,118,cue,12,6,6,intermixed,switch,large,color,#e21212,positive,even,NA,NA,NA
2,0,118,judge,12,6,6,intermixed,switch,large,color,NA,positive,even,arrowdown,1,948
2,0,119,cue,12,6,6,intermixed,switch,large,color,#e713b2,neutral,even,NA,NA,NA
2,0,119,judge,12,6,6,intermixed,switch,large,color,NA,neutral,even,arrowdown,1,1030
2,0,120,cue,12,6,6,intermixed,switch,large,color,#e21212,negative,even,NA,NA,NA
2,0,120,judge,12,6,6,intermixed,switch,large,color,NA,negative,even,arrowup,1,2045
2,0,121,cue,12,6,6,intermixed,switch,large,color,#0eaaaa,neutral,even,NA,NA,NA
2,0,121,judge,12,6,6,intermixed,switch,large,color,NA,neutral,even,arrowdown,1,2211
2,0,122,cue,12,6,6,intermixed,switch,large,color,#e21212,positive,even,NA,NA,NA
2,0,122,judge,12,6,6,intermixed,switch,large,color,NA,positive,even,arrowup,1,1664
2,0,123,cue,12,6,6,intermixed,switch,large,color,#2b5bee,negative,even,NA,NA,NA
2,0,123,judge,12,6,6,intermixed,switch,large,color,NA,negative,even,arrowdown,1,646
2,0,124,cue,12,6,6,intermixed,switch,large,color,#e21212,negative,even,NA,NA,NA
2,0,124,judge,12,6,6,intermixed,switch,large,color,NA,negative,even,arrowdown,1,1551
2,0,125,cue,12,6,6,intermixed,switch,large,color,#e21212,positive,even,NA,NA,NA
2,0,125,judge,12,6,6,intermixed,switch,large,color,NA,positive,even,arrowdown,1,1142
2,0,126,cue,12,6,6,intermixed,switch,large,color,#e21212,negative,even,NA,NA,NA
2,0,126,judge,12,6,6,intermixed,switch,large,color,NA,negative,even,arrowup,1,1549
2,0,127,cue,12,6,6,intermixed,switch,large,color,#e21212,negative,even,NA,NA,NA
2,0,127,judge,12,6,6,intermixed,switch,large,color,NA,negative,even,arrowdown,1,1208
2,0,128,cue,12,6,6,intermixed,switch,large,color,#e21212,negative,even,NA,NA,NA
2,0,128,judge,12,6,6,intermixed,switch,large,color,NA,negative,even,arrowup,1,1475
2,0,129,cue,12,6,6,intermixed,switch,large,color,#2b5bee,negative,even,NA,NA,NA
2,0,129,judge,12,6,6,intermixed,switch,large,color,NA,negative,even,arrowdown,1,1293
2,0,130,cue,12,6,6,intermixed,switch,large,color,#2b5bee,negative,even,NA,NA,NA
2,0,130,judge,12,6,6,intermixed,switch,large,color,NA,negative,even,arrowdown,1,1295
2,0,131,cue,12,6,6,intermixed,switch,large,color,#2b5bee,positive,even,NA,NA,NA
2,0,131,judge,12,6,6,intermixed,switch,large,color,NA,positive,even,arrowdown,1,1803
2,0,132,cue,12,6,6,intermixed,switch,large,color,#e21212,positive,even,NA,NA,NA
2,0,132,judge,12,6,6,intermixed,switch,large,color,NA,positive,even,arrowdown,1,1133
2,0,133,cue,12,6,6,intermixed,switch,large,color,#e21212,negative,even,NA,NA,NA
2,0,133,judge,12,6,6,intermixed,switch,large,color,NA,negative,even,arrowup,1,736
2,0,134,cue,12,6,6,intermixed,switch,large,color,#2b5bee,negative,even,NA,NA,NA
2,0,134,judge,12,6,6,intermixed,switch,large,color,NA,negative,even,arrowup,1,1414
2,0,135,cue,12,6,6,intermixed,switch,large,color,#52970c,neutral,even,NA,NA,NA
2,0,135,judge,12,6,6,intermixed,switch,large,color,NA,neutral,even,arrowup,1,1835
2,0,136,cue,12,6,6,intermixed,switch,large,color,#2b5bee,negative,even,NA,NA,NA
2,0,136,judge,12,6,6,intermixed,switch,large,color,NA,negative,even,arrowdown,1,2067
2,0,137,cue,12,6,6,intermixed,switch,large,color,#e21212,negative,even,NA,NA,NA
2,0,137,judge,12,6,6,intermixed,switch,large,color,NA,negative,even,arrowdown,1,1149
2,0,138,cue,12,6,6,intermixed,switch,large,color,#0eaaaa,neutral,even,NA,NA,NA
2,0,138,judge,12,6,6,intermixed,switch,large,color,NA,neutral,even,arrowdown,1,1883
2,0,139,cue,12,6,6,intermixed,switch,large,color,#e21212,positive,even,NA,NA,NA
2,0,139,judge,12,6,6,intermixed,switch,large,color,NA,positive,even,arrowup,1,1449
2,0,140,cue,12,6,6,intermixed,switch,large,color,#660fbd,neutral,even,NA,NA,NA
2,0,140,judge,12,6,6,intermixed,switch,large,color,NA,neutral,even,arrowup,1,1454
2,0,141,cue,12,6,6,intermixed,switch,large,color,#ecb718,neutral,even,NA,NA,NA
2,0,141,judge,12,6,6,intermixed,switch,large,color,NA,neutral,even,arrowup,1,2852
2,0,142,cue,12,6,6,intermixed,switch,large,color,#ecb718,neutral,even,NA,NA,NA
2,0,142,judge,12,6,6,intermixed,switch,large,color,NA,neutral,even,arrowup,1,743
2,0,143,cue,12,6,6,intermixed,switch,large,color,#2b5bee,negative,even,NA,NA,NA
2,0,143,judge,12,6,6,intermixed,switch,large,color,NA,negative,even,arrowup,1,1085
2,0,144,cue,12,6,6,intermixed,switch,large,color,#52970c,neutral,even,NA,NA,NA
2,0,144,judge,12,6,6,intermixed,switch,large,color,NA,neutral,even,arrowup,1,3031
2,0,145,cue,12,6,6,intermixed,switch,large,color,#2b5bee,positive,even,NA,NA,NA
2,0,145,judge,12,6,6,intermixed,switch,large,color,NA,positive,even,arrowup,1,1282
2,0,146,cue,12,6,6,intermixed,switch,large,color,#ecb718,neutral,even,NA,NA,NA
2,0,146,judge,12,6,6,intermixed,switch,large,color,NA,neutral,even,arrowup,1,3409
2,0,147,cue,12,6,6,intermixed,switch,large,color,#2b5bee,positive,even,NA,NA,NA
2,0,147,judge,12,6,6,intermixed,switch,large,color,NA,positive,even,arrowup,1,4734
2,0,148,cue,12,6,6,intermixed,switch,large,color,#52970c,neutral,even,NA,NA,NA
2,0,148,judge,12,6,6,intermixed,switch,large,color,NA,neutral,even,arrowdown,1,1075
2,0,149,cue,12,6,6,intermixed,switch,large,color,#2b5bee,negative,even,NA,NA,NA
2,0,149,judge,12,6,6,intermixed,switch,large,color,NA,negative,even,arrowdown,1,1472
2,0,150,cue,12,6,6,intermixed,switch,large,color,#2b5bee,negative,even,NA,NA,NA
2,0,150,judge,12,6,6,intermixed,switch,large,color,NA,negative,even,arrowup,1,1206
2,0,151,cue,12,6,6,intermixed,switch,large,color,#660fbd,neutral,even,NA,NA,NA
2,0,151,judge,12,6,6,intermixed,switch,large,color,NA,neutral,even,arrowdown,1,3147
2,0,152,cue,12,6,6,intermixed,switch,large,color,#e21212,positive,even,NA,NA,NA
2,0,152,judge,12,6,6,intermixed,switch,large,color,NA,positive,even,arrowup,1,1885
2,0,153,cue,12,6,6,intermixed,switch,large,color,#2b5bee,negative,even,NA,NA,NA
2,0,153,judge,12,6,6,intermixed,switch,large,color,NA,negative,even,arrowdown,1,1101
2,0,154,cue,12,6,6,intermixed,switch,large,color,#2b5bee,positive,even,NA,NA,NA
2,0,154,judge,12,6,6,intermixed,switch,large,color,NA,positive,even,arrowup,1,743
2,0,155,cue,12,6,6,intermixed,switch,large,color,#2b5bee,positive,even,NA,NA,NA
2,0,155,judge,12,6,6,intermixed,switch,large,color,NA,positive,even,arrowdown,1,1026
2,0,156,cue,12,6,6,intermixed,switch,large,color,#2b5bee,positive,even,NA,NA,NA
2,0,156,judge,12,6,6,intermixed,switch,large,color,NA,positive,even,arrowup,1,1049
2,0,157,cue,12,6,6,intermixed,switch,large,color,#0eaaaa,neutral,even,NA,NA,NA
2,0,157,judge,12,6,6,intermixed,switch,large,color,NA,neutral,even,arrowdown,1,1667
2,0,158,cue,12,6,6,intermixed,switch,large,color,#e21212,positive,even,NA,NA,NA
2,0,158,judge,12,6,6,intermixed,switch,large,color,NA,positive,even,arrowup,1,888
2,0,159,cue,12,6,6,intermixed,switch,large,color,#e21212,positive,even,NA,NA,NA
2,0,159,judge,12,6,6,intermixed,switch,large,color,NA,positive,even,arrowup,1,2127
2,0,160,cue,12,6,6,intermixed,switch,large,color,#2b5bee,positive,even,NA,NA,NA
2,0,160,judge,12,6,6,intermixed,switch,large,color,NA,positive,even,arrowup,1,1709
2,0,161,cue,12,6,6,intermixed,switch,large,color,#0eaaaa,neutral,even,NA,NA,NA
2,0,161,judge,12,6,6,intermixed,switch,large,color,NA,neutral,even,arrowdown,1,2394
2,0,162,cue,12,6,6,intermixed,switch,large,color,#2b5bee,negative,even,NA,NA,NA
2,0,162,judge,12,6,6,intermixed,switch,large,color,NA,negative,even,arrowdown,1,2828
2,0,163,cue,12,6,6,intermixed,switch,large,color,#2b5bee,positive,even,NA,NA,NA
2,0,163,judge,12,6,6,intermixed,switch,large,color,NA,positive,even,arrowup,1,3311
2,0,164,cue,12,6,6,intermixed,switch,large,color,#2b5bee,positive,even,NA,NA,NA
2,0,164,judge,12,6,6,intermixed,switch,large,color,NA,positive,even,arrowdown,1,1404
2,0,165,cue,12,6,6,intermixed,switch,large,color,#0eaaaa,neutral,even,NA,NA,NA
2,0,165,judge,12,6,6,intermixed,switch,large,color,NA,neutral,even,arrowdown,1,631
2,0,166,cue,12,6,6,intermixed,switch,large,color,#660fbd,neutral,even,NA,NA,NA
2,0,166,judge,12,6,6,intermixed,switch,large,color,NA,neutral,even,arrowup,1,2010
2,0,167,cue,12,6,6,intermixed,switch,large,color,#2b5bee,positive,even,NA,NA,NA
2,0,167,judge,12,6,6,intermixed,switch,large,color,NA,positive,even,arrowup,1,1885
2,0,168,cue,12,6,6,intermixed,switch,large,color,#e21212,negative,even,NA,NA,NA
2,0,168,judge,12,6,6,intermixed,switch,large,color,NA,negative,even,arrowdown,1,2335
2,0,169,cue,12,6,6,intermixed,switch,large,color,#e21212,positive,even,NA,NA,NA
2,0,169,judge,12,6,6,intermixed,switch,large,color,NA,positive,even,arrowdown,1,1878
2,0,170,cue,12,6,6,intermixed,switch,large,color,#e21212,positive,even,NA,NA,NA
2,0,170,judge,12,6,6,intermixed,switch,large,color,NA,positive,even,arrowup,1,1275
2,0,171,cue,12,6,6,intermixed,switch,large,color,#660fbd,neutral,even,NA,NA,NA
2,0,171,judge,12,6,6,intermixed,switch,large,color,NA,neutral,even,arrowdown,1,2037
2,0,172,cue,12,6,6,intermixed,switch,large,color,#e21212,positive,even,NA,NA,NA
2,0,172,judge,12,6,6,intermixed,switch,large,color,NA,positive,even,arrowdown,1,1842
2,0,173,cue,12,6,6,intermixed,switch,large,color,#e21212,positive,even,NA,NA,NA
2,0,173,judge,12,6,6,intermixed,switch,large,color,NA,positive,even,arrowdown,1,1356
2,0,174,cue,12,6,6,intermixed,switch,large,color,#0eaaaa,neutral,even,NA,NA,NA
2,0,174,judge,12,6,6,intermixed,switch,large,color,NA,neutral,even,arrowdown,1,1881
2,0,175,cue,12,6,6,intermixed,switch,large,color,#2b5bee,negative,even,NA,NA,NA
2,0,175,judge,12,6,6,intermixed,switch,large,color,NA,negative,even,arrowdown,1,684
2,0,176,cue,12,6,6,intermixed,switch,large,color,#2b5bee,negative,even,NA,NA,NA
2,0,176,judge,12,6,6,intermixed,switch,large,color,NA,negative,even,arrowup,1,1590
2,0,177,cue,12,6,6,intermixed,switch,large,color,#e21212,negative,even,NA,NA,NA
2,0,177,judge,12,6,6,intermixed,switch,large,color,NA,negative,even,arrowdown,1,1001
2,0,178,cue,12,6,6,intermixed,switch,large,color,#2b5bee,positive,even,NA,NA,NA
2,0,178,judge,12,6,6,intermixed,switch,large,color,NA,positive,even,arrowdown,1,1355
2,0,179,cue,12,6,6,intermixed,switch,large,color,#e21212,positive,even,NA,NA,NA
2,0,179,judge,12,6,6,intermixed,switch,large,color,NA,positive,even,arrowdown,1,778
2,1,0,cue,12,6,6,separated,switch,large,color,#e713b2,neutral,even,NA,NA,NA
2,1,0,judge,12,6,6,separated,switch,large,color,NA,neutral,even,arrowdown,1,2883
2,1,1,cue,12,6,6,separated,switch,large,color,#e21212,negative,even,NA,NA,NA
2,1,1,judge,12,6,6,separated,switch,large,color,NA,negative,even,arrowdown,1,867
2,1,2,cue,12,6,6,separated,switch,large,color,#e21212,negative,even,NA,NA,NA
2,1,2,judge,12,6,6,separated,switch,large,color,NA,negative,even,arrowup,1,1120
2,1,3,cue,12,6,6,separated,switch,large,color,#2b5bee,negative,even,NA,NA,NA
2,1,3,judge,12,6,6,separated,switch,large,color,NA,negative,even,arrowdown,1,860
2,1,4,cue,12,6,6,separated,switch,large,color,#e21212,positive,even,NA,NA,NA
2,1,4,judge,12,6,6,separated,switch,large,color,NA,positive,even,arrowup,1,812
2,1,5,cue,12,6,6,separated,switch,large,color,#52970c,neutral,even,NA,NA,NA
2,1,5,judge,12,6,6,separated,switch,large,color,NA,neutral,even,arrowdown,1,2303
2,1,6,cue,12,6,6,separated,switch,large,color,#2b5bee,negative,even,NA,NA,NA
2,1,6,judge,12,6,6,separated,switch,large,color,NA,negative,even,arrowup,1,1359
2,1,7,cue,12,6,6,separated,switch,large,color,#e21212,positive,even,NA,NA,NA
2,1,7,judge,12,6,6,separated,switch,large,color,NA,positive,even,arrowdown,1,1425
2,1,8,cue,12,6,6,separated,switch,large,color,#e21212,negative,even,NA,NA,NA
2,1,8,judge,12,6,6,separated,switch,large,color,NA,negative,even,arrowup,1,1543
2,1,9,cue,12,6,6,separated,switch,large,color,#2b5bee,positive,even,NA,NA,NA
2,1,9,judge,12,6,6,separated,switch,large,color,NA,positive,even,arrowdown,1,1204
2,1,10,cue,12,6,6,separated,switch,large,color,#52970c,neutral,even,NA,NA,NA
2,1,10,judge,12,6,6,separated,switch,large,color,NA,neutral,even,arrowdown,1,2233
2,1,11,cue,12,6,6,separated,switch,large,color,#e713b2,neutral,even,NA,NA,NA
2,1,11,judge,12,6,6,separated,switch,large,color,NA,neutral,even,arrowup,1,1917
2,1,12,cue,12,6,6,separated,switch,large,color,#e21212,negative,even,NA,NA,NA
2,1,12,judge,12,6,6,separated,switch,large,color,NA,negative,even,arrowdown,1,1857
2,1,13,cue,12,6,6,separated,switch,large,color,#e21212,positive,even,NA,NA,NA
2,1,13,judge,12,6,6,separated,switch,large,color,NA,positive,even,arrowdown,1,2035
2,1,14,cue,12,6,6,separated,switch,large,color,#2b5bee,negative,even,NA,NA,NA
2,1,14,judge,12,6,6,separated,switch,large,color,NA,negative,even,arrowup,1,883
2,1,15,cue,12,6,6,separated,switch,large,color,#e713b2,neutral,even,NA,NA,NA
2,1,15,judge,12,6,6,separated,switch,large,color,NA,neutral,even,arrowdown,1,2338
2,1,16,cue,12,6,6,separated,switch,large,color,#e21212,negative,even,NA,NA,NA
2,1,16,judge,12,6,6,separated,switch,large,color,NA,negative,even,arrowup,1,1128
2,1,17,cue,12,6,6,separated,switch,large,color,#e713b2,neutral,even,NA,NA,NA
2,1,17,judge,12,6,6,separated,switch,large,color,NA,neutral,even,arrowup,1,2237
2,1,18,cue,12,6,6,separated,switch,large,color,#e21212,negative,even,NA,NA,NA
2,1,18,judge,12,6,6,separated,switch,large,color,NA,negative,even,arrowup,1,1260
2,1,19,cue,12,6,6,separated,switch,large,color,#0eaaaa,neutral,even,NA,NA,NA
2,1,19,judge,12,6,6,separated,switch,large,color,NA,neutral,even,arrowup,1,843
2,1,20,cue,12,6,6,separated,switch,large,color,#e713b2,neutral,even,NA,NA,NA
2,1,20,judge,12,6,6,separated,switch,large,color,NA,neutral,even,arrowdown,1,1584
2,1,21,cue,12,6,6,separated,switch,large,color,#ecb718,neutral,even,NA,NA,NA
2,1,21,judge,12,6,6,separated,switch,large,color,NA,neutral,even,arrowdown,1,1122
2,1,22,cue,12,6,6,separated,switch,large,color,#52970c,neutral,even,NA,NA,NA
2,1,22,judge,12,6,6,separated,switch,large,color,NA,neutral,even,arrowup,1,2968
2,1,23,cue,12,6,6,separated,switch,large,color,#e21212,negative,even,NA,NA,NA
2,1,23,judge,12,6,6,separated,switch,large,color,NA,negative,even,arrowdown,1,1903
2,1,24,cue,12,6,6,separated,switch,large,color,#2b5bee,positive,even,NA,NA,NA
2,1,24,judge,12,6,6,separated,switch,large,color,NA,positive,even,arrowup,1,1225
2,1,25,cue,12,6,6,separated,switch,large,color,#2b5bee,positive,even,NA,NA,NA
2,1,25,judge,12,6,6,separated,switch,large,color,NA,positive,even,arrowdown,1,1967
2,1,26,cue,12,6,6,separated,switch,large,color,#e21212,positive,even,NA,NA,NA
2,1,26,judge,12,6,6,separated,switch,large,color,NA,positive,even,arrowdown,1,874
2,1,27,cue,12,6,6,separated,switch,large,color,#e21212,positive,even,NA,NA,NA
2,1,27,judge,12,6,6,separated,switch,large,color,NA,positive,even,arrowup,1,1118
2,1,28,cue,12,6,6,separated,switch,large,color,#e21212,negative,even,NA,NA,NA
2,1,28,judge,12,6,6,separated,switch,large,color,NA,negative,even,arrowdown,1,2017
2,1,29,cue,12,6,6,separated,switch,large,color,#e21212,negative,even,NA,NA,NA
2,1,29,judge,12,6,6,separated,switch,large,color,NA,negative,even,arrowdown,1,1845
2,1,30,cue,12,6,6,separated,switch,large,color,#e21212,negative,even,NA,NA,NA
2,1,30,judge,12,6,6,separated,switch,large,color,NA,negative,even,arrowup,1,1042
2,1,31,cue,12,6,6,separated,switch,large,color,#e21212,positive,even,NA,NA,NA
2,1,31,judge,12,6,6,separated,switch,large,color,NA,positive,even,arrowdown,1,1580
2,1,32,cue,12,6,6,separated,switch,large,color,#e713b2,neutral,even,NA,NA,NA
2,1,32,judge,12,6,6,separated,switch,large,color,NA,neutral,even,arrowup,1,1680
2,1,33,cue,12,6,6,separated,switch,large,color,#2b5bee,positive,even,NA,NA,NA
2,1,33,judge,12,6,6,separated,switch,large,color,NA,positive,even,arrowdown,1,1436
2,1,34,cue,12,6,6,separated,switch,large,color,#2b5bee,negative,even,NA,NA,NA
2,1,34,judge,12,6,6,separated,switch,large,color,NA,negative,even,arrowup,1,683
2,1,35,cue,12,6,6,separated,switch,large,color,#e21212,positive,even,NA,NA,NA
2,1,35,judge,12,6,6,separated,switch,large,color,NA,positive,even,arrowdown,1,917
2,1,36,cue,12,6,6,separated,switch,large,color,#2b5bee,negative,even,NA,NA,NA
2,1,36,judge,12,6,6,separated,switch,large,color,NA,negative,even,arrowup,1,2385
2,1,37,cue,12,6,6,separated,switch,large,color,#e21212,positive,even,NA,NA,NA
2,1,37,judge,12,6,6,separated,switch,large,color,NA,positive,even,arrowdown,1,779
2,1,38,cue,12,6,6,separated,switch,large,color,#2b5bee,positive,even,NA,NA,NA
2,1,38,judge,12,6,6,separated,switch,large,color,NA,positive,even,arrowdown,1,1615
2,1,39,cue,12,6,6,separated,switch,large,color,#660fbd,neutral,even,NA,NA,NA
2,1,39,judge,12,6,6,separated,switch,large,color,NA,neutral,even,arrowdown,1,3274
2,1,40,cue,12,6,6,separated,switch,large,color,#2b5bee,positive,even,NA,NA,NA
2,1,40,judge,12,6,6,separated,switch,large,color,NA,positive,even,arrowup,1,2113
2,1,41,cue,12,6,6,separated,switch,large,color,#0eaaaa,neutral,even,NA,NA,NA
2,1,41,judge,12,6,6,separated,switch,large,color,NA,neutral,even,arrowdown,1,1969
2,1,42,cue,12,6,6,separated,switch,large,color,#e21212,positive,even,NA,NA,NA
2,1,42,judge,12,6,6,separated,switch,large,color,NA,positive,even,arrowdown,1,1807
2,1,43,cue,12,6,6,separated,switch,large,color,#e21212,positive,even,NA,NA,NA
2,1,43,judge,12,6,6,separated,switch,large,color,NA,positive,even,arrowdown,1,1246
2,1,44,cue,12,6,6,separated,switch,large,color,#0eaaaa,neutral,even,NA,NA,NA
2,1,44,judge,12,6,6,separated,switch,large,color,NA,neutral,even,arrowup,1,2494
2,1,45,cue,12,6,6,separated,switch,large,color,#52970c,neutral,even,NA,NA,NA
2,1,45,judge,12,6,6,separated,switch,large,color,NA,neutral,even,arrowdown,1,1208
2,1,46,cue,12,6,6,separated,switch,large,color,#660fbd,neutral,even,NA,NA,NA
2,1,46,judge,12,6,6,separated,switch,large,color,NA,neutral,even,arrowdown,1,2187
2,1,47,cue,12,6,6,separated,switch,large,color,#660fbd,neutral,even,NA,NA,NA
2,1,47,judge,12,6,6,separated,switch,large,color,NA,neutral,even,arrowup,1,2816
2,1,48,cue,12,6,6,separated,switch,large,color,#e21212,positive,even,NA,NA,NA
2,1,48,judge,12,6,6,separated,switch,large,color,NA,positive,even,arrowdown,1,1163
2,1,49,cue,12,6,6,separated,switch,large,color,#e21212,negative,even,NA,NA,NA
2,1,49,judge,12,6,6,separated,switch,large,color,NA,negative,even,arrowdown,1,2525
2,1,50,cue,12,6,6,separated,switch,large,color,#e21212,positive,even,NA,NA,NA
2,1,50,judge,12,6,6,separated,switch,large,color,NA,positive,even,arrowup,1,1901
2,1,51,cue,12,6,6,separated,switch,large,color,#e21212,positive,even,NA,NA,NA
2,1,51,judge,12,6,6,separated,switch,large,color,NA,positive,even,arrowdown,1,1854
2,1,52,cue,12,6,6,separated,switch,large,color,#2b5bee,negative,even,NA,NA,NA
2,1,52,judge,12,6,6,separated,switch,large,color,NA,negative,even,arrowup,1,1202
2,1,53,cue,12,6,6,separated,switch,large,color,#e21212,positive,even,NA,NA,NA
2,1,53,judge,12,6,6,separated,switch,large,color,NA,positive,even,arrowup,1,1132
2,1,54,cue,12,6,6,separated,switch,large,color,#660fbd,neutral,even,NA,NA,NA
2,1,54,judge,12,6,6,separated,switch,large,color,NA,neutral,even,arrowdown,1,722
2,1,55,cue,12,6,6,separated,switch,large,color,#2b5bee,positive,even,NA,NA,NA
2,1,55,judge,12,6,6,separated,switch,large,color,NA,positive,even,arrowdown,1,1010
2,1,56,cue,12,6,6,separated,switch,large,color,#e713b2,neutral,even,NA,NA,NA
2,1,56,judge,12,6,6,separated,switch,large,color,NA,neutral,even,arrowdown,1,2409
2,1,57,cue,12,6,6,separated,switch,large,color,#e21212,negative,even,NA,NA,NA
2,1,57,judge,12,6,6,separated,switch,large,color,NA,negative,even,arrowup,1,1251
2,1,58,cue,12,6,6,separated,switch,large,color,#0eaaaa,neutral,even,NA,NA,NA
2,1,58,judge,12,6,6,separated,switch,large,color,NA,neutral,even,arrowup,1,1065
2,1,59,cue,12,6,6,separated,switch,large,color,#2b5bee,positive,even,NA,NA,NA
2,1,59,judge,12,6,6,separated,switch,large,color,NA,positive,even,arrowdown,1,1151
2,1,60,cue,12,6,6,separated,switch,large,color,#2b5bee,positive,even,NA,NA,NA
2,1,60,judge,12,6,6,separated,switch,large,color,NA,positive,even,arrowdown,1,751
2,1,61,cue,12,6,6,separated,switch,large,color,#ecb718,neutral,even,NA,NA,NA
2,1,61,judge,12,6,6,separated,switch,large,color,NA,neutral,even,arrowdown,1,1456
2,1,62,cue,12,6,6,separated,switch,large,color,#2b5bee,positive,even,NA,NA,NA
2,1,62,judge,12,6,6,separated,switch,large,color,NA,positive,even,arrowup,1,718
2,1,63,cue,12,6,6,separated,switch,large,color,#e713b2,neutral,even,NA,NA,NA
2,1,63,judge,12,6,6,separated,switch,large,color,NA,neutral,even,arrowdown,1,858
2,1,64,cue,12,6,6,separated,switch,large,color,#2b5bee,positive,even,NA,NA,NA
2,1,64,judge,12,6,6,separated,switch,large,color,NA,positive,even,arrowdown,1,1884
2,1,65,cue,12,6,6,separated,switch,large,color,#e21212,positive,even,NA,NA,NA
2,1,65,judge,12,6,6,separated,switch,large,color,NA,positive,even,arrowdown,1,1248
2,1,66,cue,12,6,6,separated,switch,large,color,#ecb718,neutral,even,NA,NA,NA
2,1,66,judge,12,6,6,separated,switch,large,color,NA,neutral,even,arrowup,1,1972
2,1,67,cue,12,6,6,separated,switch,large,color,#2b5bee,positive,even,NA,NA,NA
2,1,67,judge,12,6,6,separated,switch,large,color,NA,positive,even,arrowup,1,1408
2,1,68,cue,12,6,6,separated,switch,large,color,#2b5bee,negative,even,NA,NA,NA
2,1,68,judge,12,6,6,separated,switch,large,color,NA,negative,even,arrowdown,1,961
2,1,69,cue,12,6,6,separated,switch,large,color,#2b5bee,positive,even,NA,NA,NA
2,1,69,judge,12,6,6,separated,switch,large,color,NA,positive,even,arrowdown,1,1299
2,1,70,cue,12,6,6,separated,switch,large,color,#0eaaaa,neutral,even,NA,NA,NA
2,1,70,judge,12,6,6,separated,switch,large,color,NA,neutral,even,arrowdown,1,1049
2,1,71,cue,12,6,6,separated,switch,large,color,#e21212,positive,even,NA,NA,NA
2,1,71,judge,12,6,6,separated,switch,large,color,NA,positive,even,arrowdown,1,1434
2,1,72,cue,12,6,6,separated,switch,large,color,#0eaaaa,neutral,even,NA,NA,NA
2,1,72,judge,12,6,6,separated,switch,large,color,NA,neutral,even,arrowdown,1,2660
2,1,73,cue,12,6,6,separated,switch,large,color,#e21212,negative,even,NA,NA,NA
2,1,73,judge,12,6,6,separated,switch,large,color,NA,negative,even,arrowup,1,1841
2,1,74,cue,12,6,6,separated,switch,large,color,#52970c,neutral,even,NA,NA,NA
2,1,74,judge,12,6,6,separated,switch,large,color,NA,neutral,even,arrowup,1,3729
2,1,75,cue,12,6,6,separated,switch,large,color,#2b5bee,negative,even,NA,NA,NA
2,1,75,judge,12,6,6,separated,switch,large,color,NA,negative,even,arrowup,1,1479
2,1,76,cue,12,6,6,separated,switch,large,color,#52970c,neutral,even,NA,NA,NA
2,1,76,judge,12,6,6,separated,switch,large,color,NA,neutral,even,arrowup,1,1746
2,1,77,cue,12,6,6,separated,switch,large,color,#2b5bee,negative,even,NA,NA,NA
2,1,77,judge,12,6,6,separated,switch,large,color,NA,negative,even,arrowdown,1,770
2,1,78,cue,12,6,6,separated,switch,large,color,#e713b2,neutral,even,NA,NA,NA
2,1,78,judge,12,6,6,separated,switch,large,color,NA,neutral,even,arrowup,1,1582
2,1,79,cue,12,6,6,separated,switch,large,color,#660fbd,neutral,even,NA,NA,NA
2,1,79,judge,12,6,6,separated,switch,large,color,NA,neutral,even,arrowdown,1,1031
