participant,block,trial,screenID,setsize,nTarget,nDistractor,layout,colorCon,radius,cueType,cueColor,condition,ratio,correct,acc,RT
1,0,0,cue,12,6,6,separated,random,large,color,#2b5bee,neutral,neutral,NA,NA,NA
1,0,0,judge,12,6,6,separated,random,large,color,NA,neutral,neutral,arrowdown,1,4226
1,0,1,cue,12,6,6,separated,random,large,color,#e21212,neutral,neutral,NA,NA,NA
1,0,1,judge,12,6,6,separated,random,large,color,NA,neutral,neutral,arrowup,1,3141
1,0,2,cue,12,6,6,separated,random,large,color,#ecb718,neutral,neutral,NA,NA,NA
1,0,2,judge,12,6,6,separated,random,large,color,NA,neutral,neutral,arrowup,1,3405
1,0,3,cue,12,6,6,separated,random,large,color,#e21212,neutral,neutral,NA,NA,NA
1,0,3,judge,12,6,6,separated,random,large,color,NA,neutral,neutral,arrowdown,1,4223
1,0,4,cue,12,6,6,separated,random,large,color,#e21212,neutral,neutral,NA,NA,NA
1,0,4,judge,12,6,6,separated,random,large,color,NA,neutral,neutral,arrowdown,1,3269
1,0,5,cue,12,6,6,separated,random,large,color,#e21212,positive,neutral,NA,NA,NA
1,0,5,judge,12,6,6,separated,random,large,color,NA,positive,neutral,arrowup,1,2141
1,0,6,cue,12,6,6,separated,random,large,color,#2b5bee,positive,neutral,NA,NA,NA
1,0,6,judge,12,6,6,separated,random,large,color,NA,positive,neutral,arrowup,1,2666
1,0,7,cue,12,6,6,separated,random,large,color,#0eaaaa,negative,neutral,NA,NA,NA
1,0,7,judge,12,6,6,separated,random,large,color,NA,negative,neutral,arrowup,1,3962
1,0,8,cue,12,6,6,separated,random,large,color,#52970c,neutral,neutral,NA,NA,NA
1,0,8,judge,12,6,6,separated,random,large,color,NA,neutral,neutral,arrowdown,1,3679
1,0,9,cue,12,6,6,separated,random,large,color,#660fbd,positive,neutral,NA,NA,NA
1,0,9,judge,12,6,6,separated,random,large,color,NA,positive,neutral,arrowup,1,3798
1,0,10,cue,12,6,6,separated,random,large,color,#0eaaaa,neutral,neutral,NA,NA,NA
1,0,10,judge,12,6,6,separated,random,large,color,NA,neutral,neutral,arrowdown,1,2115
1,0,11,cue,12,6,6,separated,random,large,color,#0eaaaa,negative,neutral,NA,NA,NA
1,0,11,judge,12,6,6,separated,random,large,color,NA,negative,neutral,arrowup,1,2790
1,0,12,cue,12,6,6,separated,random,large,color,#e21212,neutral,neutral,NA,NA,NA
1,0,12,judge,12,6,6,separated,random,large,color,NA,neutral,neutral,arrowup,1,2460
1,0,13,cue,12,6,6,separated,random,large,color,#52970c,positive,neutral,NA,NA,NA
1,0,13,judge,12,6,6,separated,random,large,color,NA,positive,neutral,arrowdown,1,2513
1,0,14,cue,12,6,6,separated,random,large,color,#2b5bee,neutral,neutral,NA,NA,NA
1,0,14,judge,12,6,6,separated,random,large,color,NA,neutral,neutral,arrowup,1,2829
1,0,15,cue,12,6,6,separated,random,large,color,#ecb718,neutral,neutral,NA,NA,NA
1,0,15,judge,12,6,6,separated,random,large,color,NA,neutral,neutral,arrowup,1,3524
1,0,16,cue,12,6,6,separated,random,large,color,#e713b2,neutral,neutral,NA,NA,NA
1,0,16,judge,12,6,6,separated,random,large,color,NA,neutral,neutral,arrowdown,1,3147
1,0,17,cue,12,6,6,separated,random,large,color,#e21212,neutral,neutral,NA,NA,NA
1,0,17,judge,12,6,6,separated,random,large,color,NA,neutral,neutral,arrowup,1,4195
1,0,18,cue,12,6,6,separated,random,large,color,#52970c,positive,neutral,NA,NA,NA
1,0,18,judge,12,6,6,separated,random,large,color,NA,positive,neutral,arrowdown,1,4430
1,0,19,cue,12,6,6,separated,random,large,color,#e21212,neutral,neutral,NA,NA,NA
1,0,19,judge,12,6,6,separated,random,large,color,NA,neutral,neutral,arrowup,1,4984
1,0,20,cue,12,6,6,separated,random,large,color,#e713b2,negative,neutral,NA,NA,NA
1,0,20,judge,12,6,6,separated,random,large,color,NA,negative,neutral,arrowup,1,5090
1,0,21,cue,12,6,6,separated,random,large,color,#ecb718,negative,neutral,NA,NA,NA
1,0,21,judge,12,6,6,separated,random,large,color,NA,negative,neutral,arrowdown,1,5130
1,0,22,cue,12,6,6,separated,random,large,color,#e713b2,neutral,neutral,NA,NA,NA
1,0,22,judge,12,6,6,separated,random,large,color,NA,neutral,neutral,arrowup,1,3344
1,0,23,cue,12,6,6,separated,random,large,color,#2b5bee,neutral,neutral,NA,NA,NA
1,0,23,judge,12,6,6,separated,random,large,color,NA,neutral,neutral,arrowdown,1,2743
1,0,24,cue,12,6,6,separated,random,large,color,#2b5bee,neutral,neutral,NA,NA,NA
1,0,24,judge,12,6,6,separated,random,large,color,NA,neutral,neutral,arrowup,1,3331
1,0,25,cue,12,6,6,separated,random,large,color,#e713b2,neutral,neutral,NA,NA,NA
1,0,25,judge,12,6,6,separated,random,large,color,NA,neutral,neutral,arrowup,1,3714
1,0,26,cue,12,6,6,separated,random,large,color,#660fbd,negative,neutral,NA,NA,NA
1,0,26,judge,12,6,6,separated,random,large,color,NA,negative,neutral,arrowup,1,5634
1,0,27,cue,12,6,6,separated,random,large,color,#660fbd,neutral,neutral,NA,NA,NA
1,0,27,judge,12,6,6,separated,random,large,color,NA,neutral,neutral,arrowup,1,3117
1,0,28,cue,12,6,6,separated,random,large,color,#52970c,neutral,neutral,NA,NA,NA
1,0,28,judge,12,6,6,separated,random,large,color,NA,neutral,neutral,arrowdown,1,3550
1,0,29,cue,12,6,6,separated,random,large,color,#e713b2,neutral,neutral,NA,NA,NA
1,0,29,judge,12,6,6,separated,random,large,color,NA,neutral,neutral,arrowdown,1,4655
1,0,30,cue,12,6,6,separated,random,large,color,#e713b2,neutral,neutral,NA,NA,NA
1,0,30,judge,12,6,6,separated,random,large,color,NA,neutral,neutral,arrowup,1,3565
1,0,31,cue,12,6,6,separated,random,large,color,#660fbd,neutral,neutral,NA,NA,NA
1,0,31,judge,12,6,6,separated,random,large,color,NA,neutral,neutral,arrowup,1,4138
1,0,32,cue,12,6,6,separated,random,large,color,#2b5bee,negative,neutral,NA,NA,NA
1,0,32,judge,12,6,6,separated,random,large,color,NA,negative,neutral,arrowdown,1,3220
1,0,33,cue,12,6,6,separated,random,large,color,#52970c,neutral,neutral,NA,NA,NA
1,0,33,judge,12,6,6,separated,random,large,color,NA,neutral,neutral,arrowup,1,4954
1,0,34,cue,12,6,6,separated,random,large,color,#52970c,neutral,neutral,NA,NA,NA
1,0,34,judge,12,6,6,separated,random,large,color,NA,neutral,neutral,arrowdown,1,4407
1,0,35,cue,12,6,6,separated,random,large,color,#2b5bee,positive,neutral,NA,NA,NA
1,0,35,judge,12,6,6,separated,random,large,color,NA,positive,neutral,arrowup,1,5654
1,0,36,cue,12,6,6,separated,random,large,color,#e21212,negative,neutral,NA,NA,NA
1,0,36,judge,12,6,6,separated,random,large,color,NA,negative,neutral,arrowup,1,4224
1,0,37,cue,12,6,6,separated,random,large,color,#660fbd,neutral,neutral,NA,NA,NA
1,0,37,judge,12,6,6,separated,random,large,color,NA,neutral,neutral,arrowup,1,3268
1,0,38,cue,12,6,6,separated,random,large,color,#52970c,negative,neutral,NA,NA,NA
1,0,38,judge,12,6,6,separated,random,large,color,NA,negative,neutral,arrowdown,1,2327
1,0,39,cue,12,6,6,separated,random,large,color,#0eaaaa,neutral,neutral,NA,NA,NA
1,0,39,judge,12,6,6,separated,random,large,color,NA,neutral,neutral,arrowdown,1,2781
1,0,40,cue,12,6,6,separated,random,large,color,#2b5bee,neutral,neutral,NA,NA,NA
1,0,40,judge,12,6,6,separated,random,large,color,NA,neutral,neutral,arrowup,1,3956
1,0,41,cue,12,6,6,separated,random,large,color,#e21212,positive,neutral,NA,NA,NA
1,0,41,judge,12,6,6,separated,random,large,color,NA,positive,neutral,arrowdown,1,4610
1,0,42,cue,12,6,6,separated,random,large,color,#e21212,negative,neutral,NA,NA,NA
1,0,42,judge,12,6,6,separated,random,large,color,NA,negative,neutral,arrowup,1,3895
1,0,43,cue,12,6,6,separated,random,large,color,#660fbd,neutral,neutral,NA,NA,NA
1,0,43,judge,12,6,6,separated,random,large,color,NA,neutral,neutral,arrowdown,1,7778
1,0,44,cue,12,6,6,separated,random,large,color,#52970c,neutral,neutral,NA,NA,NA
1,0,44,judge,12,6,6,separated,random,large,color,NA,neutral,neutral,arrowdown,1,4580
1,0,45,cue,12,6,6,separated,random,large,color,#ecb718,neutral,neutral,NA,NA,NA
1,0,45,judge,12,6,6,separated,random,large,color,NA,neutral,neutral,arrowdown,1,4521
1,0,46,cue,12,6,6,separated,random,large,color,#0eaaaa,neutral,neutral,NA,NA,NA
1,0,46,judge,12,6,6,separated,random,large,color,NA,neutral,neutral,arrowdown,1,4027
1,0,47,cue,12,6,6,separated,random,large,color,#2b5bee,neutral,neutral,NA,NA,NA
1,0,47,judge,12,6,6,separated,random,large,color,NA,neutral,neutral,arrowdown,1,3758
1,0,48,cue,12,6,6,separated,random,large,color,#52970c,neutral,neutral,NA,NA,NA
1,0,48,judge,12,6,6,separated,random,large,color,NA,neutral,neutral,arrowup,1,6248
1,0,49,cue,12,6,6,separated,random,large,color,#2b5bee,positive,neutral,NA,NA,NA
1,0,49,judge,12,6,6,separated,random,large,color,NA,positive,neutral,arrowup,1,3082
1,0,50,cue,12,6,6,separated,random,large,color,#0eaaaa,positive,neutral,NA,NA,NA
1,0,50,judge,12,6,6,separated,random,large,color,NA,positive,neutral,arrowup,1,3723
1,0,51,cue,12,6,6,separated,random,large,color,#e21212,neutral,neutral,NA,NA,NA
1,0,51,judge,12,6,6,separated,random,large,color,NA,neutral,neutral,arrowup,1,3050
1,0,52,cue,12,6,6,separated,random,large,color,#52970c,neutral,neutral,NA,NA,NA
1,0,52,judge,12,6,6,separated,random,large,color,NA,neutral,neutral,arrowup,1,2460
1,0,53,cue,12,6,6,separated,random,large,color,#52970c,neutral,neutral,NA,NA,NA
1,0,53,judge,12,6,6,separated,random,large,color,NA,neutral,neutral,arrowdown,1,4697
1,0,54,cue,12,6,6,separated,random,large,color,#e21212,neutral,neutral,NA,NA,NA
1,0,54,judge,12,6,6,separated,random,large,color,NA,neutral,neutral,arrowdown,1,3094
1,0,55,cue,12,6,6,separated,random,large,color,#660fbd,positive,neutral,NA,NA,NA
1,0,55,judge,12,6,6,separated,random,large,color,NA,positive,neutral,arrowdown,1,2985
1,0,56,cue,12,6,6,separated,random,large,color,#660fbd,neutral,neutral,NA,NA,NA
1,0,56,judge,12,6,6,separated,random,large,color,NA,neutral,neutral,arrowdown,1,2404
1,0,57,cue,12,6,6,separated,random,large,color,#ecb718,neutral,neutral,NA,NA,NA
1,0,57,judge,12,6,6,separated,random,large,color,NA,neutral,neutral,arrowdown,1,6281
1,0,58,cue,12,6,6,separated,random,large,color,#52970c,neutral,neutral,NA,NA,NA
1,0,58,judge,12,6,6,separated,random,large,color,NA,neutral,neutral,arrowup,1,5742
1,0,59,cue,12,6,6,separated,random,large,color,#2b5bee,neutral,neutral,NA,NA,NA
1,0,59,judge,12,6,6,separated,random,large,color,NA,neutral,neutral,arrowup,1,3511
1,0,60,cue,12,6,6,separated,random,large,color,#2b5bee,neutral,neutral,NA,NA,NA
1,0,60,judge,12,6,6,separated,random,large,color,NA,neutral,neutral,arrowup,1,3026
1,0,61,cue,12,6,6,separated,random,large,color,#0eaaaa,positive,neutral,NA,NA,NA
1,0,61,judge,12,6,6,separated,random,large,color,NA,positive,neutral,arrowdown,1,4071
1,0,62,cue,12,6,6,separated,random,large,color,#ecb718,neutral,neutral,NA,NA,NA
1,0,62,judge,12,6,6,separated,random,large,color,NA,neutral,neutral,arrowdown,1,3357
1,0,63,cue,12,6,6,separated,random,large,color,#e21212,negative,neutral,NA,NA,NA
1,0,63,judge,12,6,6,separated,random,large,color,NA,negative,neutral,arrowup,1,3670
1,0,64,cue,12,6,6,separated,random,large,color,#660fbd,negative,neutral,NA,NA,NA
1,0,64,judge,12,6,6,separated,random,large,color,NA,negative,neutral,arrowdown,1,2486
1,0,65,cue,12,6,6,separated,random,large,color,#660fbd,neutral,neutral,NA,NA,NA
1,0,65,judge,12,6,6,separated,random,large,color,NA,neutral,neutral,arrowdown,1,7377
1,0,66,cue,12,6,6,separated,random,large,color,#2b5bee,neutral,neutral,NA,NA,NA
1,0,66,judge,12,6,6,separated,random,large,color,NA,neutral,neutral,arrowup,1,3210
1,0,67,cue,12,6,6,separated,random,large,color,#ecb718,neutral,neutral,NA,NA,NA
1,0,67,judge,12,6,6,separated,random,large,color,NA,neutral,neutral,arrowdown,1,2323
1,0,68,cue,12,6,6,separated,random,large,color,#e713b2,neutral,neutral,NA,NA,NA
1,0,68,judge,12,6,6,separated,random,large,color,NA,neutral,neutral,arrowup,1,2907
1,0,69,cue,12,6,6,separated,random,large,color,#e21212,neutral,neutral,NA,NA,NA
1,0,69,judge,12,6,6,separated,random,large,color,NA,neutral,neutral,arrowdown,1,1643
1,0,70,cue,12,6,6,separated,random,large,color,#e21212,neutral,neutral,NA,NA,NA
1,0,70,judge,12,6,6,separated,random,large,color,NA,neutral,neutral,arrowdown,1,1280
1,0,71,cue,12,6,6,separated,random,large,color,#0eaaaa,neutral,neutral,NA,NA,NA
1,0,71,judge,12,6,6,separated,random,large,color,NA,neutral,neutral,arrowup,1,1732
1,0,72,cue,12,6,6,separated,random,large,color,#2b5bee,neutral,neutral,NA,NA,NA
1,0,72,judge,12,6,6,separated,random,large,color,NA,neutral,neutral,arrowdown,1,2420
1,0,73,cue,12,6,6,separated,random,large,color,#0eaaaa,neutral,neutral,NA,NA,NA
1,0,73,judge,12,6,6,separated,random,large,color,NA,neutral,neutral,arrowdown,1,2473
1,0,74,cue,12,6,6,separated,random,large,color,#e713b2,neutral,neutral,NA,NA,NA
1,0,74,judge,12,6,6,separated,random,large,color,NA,neutral,neutral,arrowdown,1,2857
1,0,75,cue,12,6,6,separated,random,large,color,#e713b2,neutral,neutral,NA,NA,NA
1,0,75,judge,12,6,6,separated,random,large,color,NA,neutral,neutral,arrowup,1,1078
1,0,76,cue,12,6,6,separated,random,large,color,#e21212,neutral,neutral,NA,NA,NA
1,0,76,judge,12,6,6,separated,random,large,color,NA,neutral,neutral,arrowdown,1,2934
1,0,77,cue,12,6,6,separated,random,large,color,#52970c,positive,neutral,NA,NA,NA
1,0,77,judge,12,6,6,separated,random,large,color,NA,positive,neutral,arrowup,1,2175
1,0,78,cue,12,6,6,separated,random,large,color,#660fbd,negative,neutral,NA,NA,NA
1,0,78,judge,12,6,6,separated,random,large,color,NA,negative,neutral,arrowup,1,1644
1,0,79,cue,12,6,6,separated,random,large,color,#0eaaaa,neutral,neutral,NA,NA,NA
1,0,79,judge,12,6,6,separated,random,large,color,NA,neutral,neutral,arrowdown,1,1949
1,0,80,cue,12,6,6,separated,random,large,color,#e21212,neutral,neutral,NA,NA,NA
1,0,80,judge,12,6,6,separated,random,large,color,NA,neutral,neutral,arrowup,1,3313
1,0,81,cue,12,6,6,separated,random,large,color,#2b5bee,neutral,neutral,NA,NA,NA
1,0,81,judge,12,6,6,separated,random,large,color,NA,neutral,neutral,arrowup,1,1620
1,0,82,cue,12,6,6,separated,random,large,color,#e713b2,neutral,neutral,NA,NA,NA
1,0,82,judge,12,6,6,separated,random,large,color,NA,neutral,neutral,arrowdown,1,2382
1,0,83,cue,12,6,6,separated,random,large,color,#52970c,neutral,neutral,NA,NA,NA
1,0,83,judge,12,6,6,separated,random,large,color,NA,neutral,neutral,arrowup,1,2273
1,0,84,cue,12,6,6,separated,random,large,color,#660fbd,negative,neutral,NA,NA,NA
1,0,84,judge,12,6,6,separated,random,large,color,NA,negative,neutral,arrowup,1,3383
1,0,85,cue,12,6,6,separated,random,large,color,#660fbd,negative,neutral,NA,NA,NA
1,0,85,judge,12,6,6,separated,random,large,color,NA,negative,neutral,arrowup,1,1810
1,0,86,cue,12,6,6,separated,random,large,color,#ecb718,neutral,neutral,NA,NA,NA
1,0,86,judge,12,6,6,separated,random,large,color,NA,neutral,neutral,arrowdown,1,5196
1,0,87,cue,12,6,6,separated,random,large,color,#e21212,neutral,neutral,NA,NA,NA
1,0,87,judge,12,6,6,separated,random,large,color,NA,neutral,neutral,arrowdown,1,1992
1,0,88,cue,12,6,6,separated,random,large,color,#e713b2,neutral,neutral,NA,NA,NA
1,0,88,judge,12,6,6,separated,random,large,color,NA,neutral,neutral,arrowup,1,2183
1,0,89,cue,12,6,6,separated,random,large,color,#0eaaaa,positive,neutral,NA,NA,NA
1,0,89,judge,12,6,6,separated,random,large,color,NA,positive,neutral,arrowup,1,3629
1,0,90,cue,12,6,6,separated,random,large,color,#660fbd,neutral,neutral,NA,NA,NA
1,0,90,judge,12,6,6,separated,random,large,color,NA,neutral,neutral,arrowup,1,1512
1,0,91,cue,12,6,6,separated,random,large,color,#2b5bee,neutral,neutral,NA,NA,NA
1,0,91,judge,12,6,6,separated,random,large,color,NA,neutral,neutral,arrowdown,1,3109
1,0,92,cue,12,6,6,separated,random,large,color,#ecb718,neutral,neutral,NA,NA,NA
1,0,92,judge,12,6,6,separated,random,large,color,NA,neutral,neutral,arrowup,1,1904
1,0,93,cue,12,6,6,separated,random,large,color,#52970c,neutral,neutral,NA,NA,NA
1,0,93,judge,12,6,6,separated,random,large,color,NA,neutral,neutral,arrowdown,1,3219
1,0,94,cue,12,6,6,separated,random,large,color,#2b5bee,neutral,neutral,NA,NA,NA
1,0,94,judge,12,6,6,separated,random,large,color,NA,neutral,neutral,arrowup,1,2476
1,0,95,cue,12,6,6,separated,random,large,color,#660fbd,neutral,neutral,NA,NA,NA
1,0,95,judge,12,6,6,separated,random,large,color,NA,neutral,neutral,arrowup,1,1719
1,0,96,cue,12,6,6,separated,random,large,color,#52970c,positive,neutral,NA,NA,NA
1,0,96,judge,12,6,6,separated,random,large,color,NA,positive,neutral,arrowdown,1,1380
1,0,97,cue,12,6,6,separated,random,large,color,#ecb718,neutral,neutral,NA,NA,NA
1,0,97,judge,12,6,6,separated,random,large,color,NA,neutral,neutral,arrowdown,1,1251
1,0,98,cue,12,6,6,separated,random,large,color,#660fbd,neutral,neutral,NA,NA,NA
1,0,98,judge,12,6,6,separated,random,large,color,NA,neutral,neutral,arrowdown,1,3158
1,0,99,cue,12,6,6,separated,random,large,color,#e21212,neutral,neutral,NA,NA,NA
1,0,99,judge,12,6,6,separated,random,large,color,NA,neutral,neutral,arrowup,1,2755
1,0,100,cue,12,6,6,separated,random,large,color,#0eaaaa,neutral,neutral,NA,NA,NA
1,0,100,judge,12,6,6,separated,random,large,color,NA,neutral,neutral,arrowup,1,2746
1,0,101,cue,12,6,6,separated,random,large,color,#e21212,neutral,neutral,NA,NA,NA
1,0,101,judge,12,6,6,separated,random,large,color,NA,neutral,neutral,arrowdown,1,2309
1,0,102,cue,12,6,6,separated,random,large,color,#e21212,neutral,neutral,NA,NA,NA
1,0,102,judge,12,6,6,separated,random,large,color,NA,neutral,neutral,arrowup,1,2570
1,0,103,cue,12,6,6,separated,random,large,color,#e713b2,neutral,neutral,NA,NA,NA
1,0,103,judge,12,6,6,separated,random,large,color,NA,neutral,neutral,arrowdown,1,2328
1,0,104,cue,12,6,6,separated,random,large,color,#0eaaaa,neutral,neutral,NA,NA,NA
1,0,104,judge,12,6,6,separated,random,large,color,NA,neutral,neutral,arrowdown,1,1994
1,0,105,cue,12,6,6,separated,random,large,color,#e713b2,negative,neutral,NA,NA,NA
1,0,105,judge,12,6,6,separated,random,large,color,NA,negative,neutral,arrowdown,1,1614
1,0,106,cue,12,6,6,separated,random,large,color,#ecb718,neutral,neutral,NA,NA,NA
1,0,106,judge,12,6,6,separated,random,large,color,NA,neutral,neutral,arrowdown,1,1518
1,0,107,cue,12,6,6,separated,random,large,color,#52970c,negative,neutral,NA,NA,NA
1,0,107,judge,12,6,6,separated,random,large,color,NA,negative,neutral,arrowdown,1,1569
1,0,108,cue,12,6,6,separated,random,large,color,#0eaaaa,neutral,neutral,NA,NA,NA
1,0,108,judge,12,6,6,separated,random,large,color,NA,neutral,neutral,arrowup,1,3283
1,0,109,cue,12,6,6,separated,random,large,color,#2b5bee,positive,neutral,NA,NA,NA
1,0,109,judge,12,6,6,separated,random,large,color,NA,positive,neutral,arrowup,1,1880
1,0,110,cue,12,6,6,separated,random,large,color,#2b5bee,neutral,neutral,NA,NA,NA
1,0,110,judge,12,6,6,separated,random,large,color,NA,neutral,neutral,arrowdown,1,1745
1,0,111,cue,12,6,6,separated,random,large,color,#e21212,neutral,neutral,NA,NA,NA
1,0,111,judge,12,6,6,separated,random,large,color,NA,neutral,neutral,arrowup,1,3243
1,0,112,cue,12,6,6,separated,random,large,color,#0eaaaa,neutral,neutral,NA,NA,NA
1,0,112,judge,12,6,6,separated,random,large,color,NA,neutral,neutral,arrowdown,1,1648
1,0,113,cue,12,6,6,separated,random,large,color,#660fbd,neutral,neutral,NA,NA,NA
1,0,113,judge,12,6,6,separated,random,large,color,NA,neutral,neutral,arrowdown,1,1247
1,0,114,cue,12,6,6,separated,random,large,color,#2b5bee,negative,neutral,NA,NA,NA
1,0,114,judge,12,6,6,separated,random,large,color,NA,negative,neutral,arrowdown,1,2236
1,0,115,cue,12,6,6,separated,random,large,color,#52970c,positive,neutral,NA,NA,NA
1,0,115,judge,12,6,6,separated,random,large,color,NA,positive,neutral,arrowdown,1,2493
1,0,116,cue,12,6,6,separated,random,large,color,#ecb718,neutral,neutral,NA,NA,NA
1,0,116,judge,12,6,6,separated,random,large,color,NA,neutral,neutral,arrowdown,1,2941
1,0,117,cue,12,6,6,separated,random,large,color,#0eaaaa,positive,neutral,NA,NA,NA
1,0,117,judge,12,6,6,separated,random,large,color,NA,positive,neutral,arrowup,1,1765
1,0,118,cue,12,6,6,separated,random,large,color,#52970c,neutral,neutral,NA,NA,NA
1,0,118,judge,12,6,6,separated,random,large,color,NA,neutral,neutral,arrowup,1,3263
1,0,119,cue,12,6,6,separated,random,large,color,#e21212,neutral,neutral,NA,NA,NA
1,0,119,judge,12,6,6,separated,random,large,color,NA,neutral,neutral,arrowup,1,2349
1,0,120,cue,12,6,6,separated,random,large,color,#52970c,neutral,neutral,NA,NA,NA
1,0,120,judge,12,6,6,separated,random,large,color,NA,neutral,neutral,arrowdown,1,2058
1,0,121,cue,12,6,6,separated,random,large,color,#ecb718,positive,neutral,NA,NA,NA
1,0,121,judge,12,6,6,separated,random,large,color,NA,positive,neutral,arrowup,1,1247
1,0,122,cue,12,6,6,separated,random,large,color,#e21212,positive,neutral,NA,NA,NA
1,0,122,judge,12,6,6,separated,random,large,color,NA,positive,neutral,arrowup,1,1026
1,0,123,cue,12,6,6,separated,random,large,color,#e21212,negative,neutral,NA,NA,NA
1,0,123,judge,12,6,6,separated,random,large,color,NA,negative,neutral,arrowdown,1,1401
1,0,124,cue,12,6,6,separated,random,large,color,#e713b2,neutral,neutral,NA,NA,NA
1,0,124,judge,12,6,6,separated,random,large,color,NA,neutral,neutral,arrowdown,1,2353
1,0,125,cue,12,6,6,separated,random,large,color,#52970c,positive,neutral,NA,NA,NA
1,0,125,judge,12,6,6,separated,random,large,color,NA,positive,neutral,arrowdown,1,1763
1,0,126,cue,12,6,6,separated,random,large,color,#2b5bee,negative,neutral,NA,NA,NA
1,0,126,judge,12,6,6,separated,random,large,color,NA,negative,neutral,arrowdown,1,1470
1,0,127,cue,12,6,6,separated,random,large,color,#0eaaaa,neutral,neutral,NA,NA,NA
1,0,127,judge,12,6,6,separated,random,large,color,NA,neutral,neutral,arrowdown,1,1887
1,0,128,cue,12,6,6,separated,random,large,color,#e21212,neutral,neutral,NA,NA,NA
1,0,128,judge,12,6,6,separated,random,large,color,NA,neutral,neutral,arrowdown,1,2350
1,0,129,cue,12,6,6,separated,random,large,color,#e713b2,neutral,neutral,NA,NA,NA
1,0,129,judge,12,6,6,separated,random,large,color,NA,neutral,neutral,arrowdown,1,1368
1,0,130,cue,12,6,6,separated,random,large,color,#e21212,neutral,neutral,NA,NA,NA
1,0,130,judge,12,6,6,separated,random,large,color,NA,neutral,neutral,arrowup,1,2954
1,0,131,cue,12,6,6,separated,random,large,color,#52970c,neutral,neutral,NA,NA,NA
1,0,131,judge,12,6,6,separated,random,large,color,NA,neutral,neutral,arrowdown,1,1676
1,0,132,cue,12,6,6,separated,random,large,color,#2b5bee,positive,neutral,NA,NA,NA
1,0,132,judge,12,6,6,separated,random,large,color,NA,positive,neutral,arrowup,1,1923
1,0,133,cue,12,6,6,separated,random,large,color,#0eaaaa,neutral,neutral,NA,NA,NA
1,0,133,judge,12,6,6,separated,random,large,color,NA,neutral,neutral,arrowup,1,1728
1,0,134,cue,12,6,6,separated,random,large,color,#e21212,neutral,neutral,NA,NA,NA
1,0,134,judge,12,6,6,separated,random,large,color,NA,neutral,neutral,arrowup,1,1516
1,0,135,cue,12,6,6,separated,random,large,color,#ecb718,positive,neutral,NA,NA,NA
1,0,135,judge,12,6,6,separated,random,large,color,NA,positive,neutral,arrowdown,1,2047
1,0,136,cue,12,6,6,separated,random,large,color,#0eaaaa,neutral,neutral,NA,NA,NA
1,0,136,judge,12,6,6,separated,random,large,color,NA,neutral,neutral,arrowdown,1,2025
1,0,137,cue,12,6,6,separated,random,large,color,#e21212,negative,neutral,NA,NA,NA
1,0,137,judge,12,6,6,separated,random,large,color,NA,negative,neutral,arrowdown,1,2042
1,0,138,cue,12,6,6,separated,random,large,color,#660fbd,neutral,neutral,NA,NA,NA
1,0,138,judge,12,6,6,separated,random,large,color,NA,neutral,neutral,arrowup,1,2568
1,0,139,cue,12,6,6,separated,random,large,color,#52970c,neutral,neutral,NA,NA,NA
1,0,139,judge,12,6,6,separated,random,large,color,NA,neutral,neutral,arrowup,1,2384
1,0,140,cue,12,6,6,separated,random,large,color,#e713b2,neutral,neutral,NA,NA,NA
1,0,140,judge,12,6,6,separated,random,large,color,NA,neutral,neutral,arrowup,1,1732
1,0,141,cue,12,6,6,separated,random,large,color,#660fbd,neutral,neutral,NA,NA,NA
1,0,141,judge,12,6,6,separated,random,large,color,NA,neutral,neutral,arrowdown,1,3004
1,0,142,cue,12,6,6,separated,random,large,color,#e21212,neutral,neutral,NA,NA,NA
1,0,142,judge,12,6,6,separated,random,large,color,NA,neutral,neutral,arrowup,1,1107
1,0,143,cue,12,6,6,separated,random,large,color,#0eaaaa,neutral,neutral,NA,NA,NA
1,0,143,judge,12,6,6,separated,random,large,color,NA,neutral,neutral,arrowup,1,2661
1,0,144,cue,12,6,6,separated,random,large,color,#e21212,neutral,neutral,NA,NA,NA
1,0,144,judge,12,6,6,separated,random,large,color,NA,neutral,neutral,arrowdown,1,1779
1,0,145,cue,12,6,6,separated,random,large,color,#ecb718,neutral,neutral,NA,NA,NA
1,0,145,judge,12,6,6,separated,random,large,color,NA,neutral,neutral,arrowdown,1,1530
1,0,146,cue,12,6,6,separated,random,large,color,#e713b2,neutral,neutral,NA,NA,NA
1,0,146,judge,12,6,6,separated,random,large,color,NA,neutral,neutral,arrowdown,1,1138
1,0,147,cue,12,6,6,separated,random,large,color,#ecb718,positive,neutral,NA,NA,NA
1,0,147,judge,12,6,6,separated,random,large,color,NA,positive,neutral,arrowdown,1,1363
1,0,148,cue,12,6,6,separated,random,large,color,#ecb718,neutral,neutral,NA,NA,NA
1,0,148,judge,12,6,6,separated,random,large,color,NA,neutral,neutral,arrowdown,1,1062
1,0,149,cue,12,6,6,separated,random,large,color,#0eaaaa,negative,neutral,NA,NA,NA
1,0,149,judge,12,6,6,separated,random,large,color,NA,negative,neutral,arrowdown,1,1463
1,0,150,cue,12,6,6,separated,random,large,color,#2b5bee,neutral,neutral,NA,NA,NA
1,0,150,judge,12,6,6,separated,random,large,color,NA,neutral,neutral,arrowup,1,2649
1,0,151,cue,12,6,6,separated,random,large,color,#2b5bee,neutral,neutral,NA,NA,NA
1,0,151,judge,12,6,6,separated,random,large,color,NA,neutral,neutral,arrowdown,1,2849
1,0,152,cue,12,6,6,separated,random,large,color,#52970c,neutral,neutral,NA,NA,NA
1,0,152,judge,12,6,6,separated,random,large,color,NA,neutral,neutral,arrowdown,1,1138
1,0,153,cue,12,6,6,separated,random,large,color,#0eaaaa,neutral,neutral,NA,NA,NA
1,0,153,judge,12,6,6,separated,random,large,color,NA,neutral,neutral,arrowdown,1,1444
1,0,154,cue,12,6,6,separated,random,large,color,#e713b2,neutral,neutral,NA,NA,NA
1,0,154,judge,12,6,6,separated,random,large,color,NA,neutral,neutral,arrowdown,1,2393
1,0,155,cue,12,6,6,separated,random,large,color,#2b5bee,neutral,neutral,NA,NA,NA
1,0,155,judge,12,6,6,separated,random,large,color,NA,neutral,neutral,arrowdown,1,3995
1,0,156,cue,12,6,6,separated,random,large,color,#0eaaaa,neutral,neutral,NA,NA,NA
1,0,156,judge,12,6,6,separated,random,large,color,NA,neutral,neutral,arrowup,1,1560
1,0,157,cue,12,6,6,separated,random,large,color,#e713b2,positive,neutral,NA,NA,NA
1,0,157,judge,12,6,6,separated,random,large,color,NA,positive,neutral,arrowdown,1,1942
1,0,158,cue,12,6,6,separated,random,large,color,#e21212,neutral,neutral,NA,NA,NA
1,0,158,judge,12,6,6,separated,random,large,color,NA,neutral,neutral,arrowup,1,2066
1,0,159,cue,12,6,6,separated,random,large,color,#e21212,neutral,neutral,NA,NA,NA
1,0,159,judge,12,6,6,separated,random,large,color,NA,neutral,neutral,arrowup,1,1580
1,0,160,cue,12,6,6,separated,random,large,color,#2b5bee,negative,neutral,NA,NA,NA
1,0,160,judge,12,6,6,separated,random,large,color,NA,negative,neutral,arrowup,1,3811
1,0,161,cue,12,6,6,separated,random,large,color,#660fbd,negative,neutral,NA,NA,NA
1,0,161,judge,12,6,6,separated,random,large,color,NA,negative,neutral,arrowup,1,1024
1,0,162,cue,12,6,6,separated,random,large,color,#2b5bee,neutral,neutral,NA,NA,NA
1,0,162,judge,12,6,6,separated,random,large,color,NA,neutral,neutral,arrowdown,1,1569
1,0,163,cue,12,6,6,separated,random,large,color,#52970c,positive,neutral,NA,NA,NA
1,0,163,judge,12,6,6,separated,random,large,color,NA,positive,neutral,arrowdown,1,1228
1,0,164,cue,12,6,6,separated,random,large,color,#660fbd,neutral,neutral,NA,NA,NA
1,0,164,judge,12,6,6,separated,random,large,color,NA,neutral,neutral,arrowdown,1,2466
1,0,165,cue,12,6,6,separated,random,large,color,#e21212,neutral,neutral,NA,NA,NA
1,0,165,judge,12,6,6,separated,random,large,color,NA,neutral,neutral,arrowdown,0,1932
1,0,166,cue,12,6,6,separated,random,large,color,#660fbd,neutral,neutral,NA,NA,NA
1,0,166,judge,12,6,6,separated,random,large,color,NA,neutral,neutral,arrowdown,1,2193
1,0,167,cue,12,6,6,separated,random,large,color,#660fbd,neutral,neutral,NA,NA,NA
1,0,167,judge,12,6,6,separated,random,large,color,NA,neutral,neutral,arrowdown,1,1947
1,0,168,cue,12,6,6,separated,random,large,color,#0eaaaa,neutral,neutral,NA,NA,NA
1,0,168,judge,12,6,6,separated,random,large,color,NA,neutral,neutral,arrowdown,1,2052
1,0,169,cue,12,6,6,separated,random,large,color,#52970c,neutral,neutral,NA,NA,NA
1,0,169,judge,12,6,6,separated,random,large,color,NA,neutral,neutral,arrowdown,1,2300
1,0,170,cue,12,6,6,separated,random,large,color,#0eaaaa,neutral,neutral,NA,NA,NA
1,0,170,judge,12,6,6,separated,random,large,color,NA,neutral,neutral,arrowup,1,1541
1,0,171,cue,12,6,6,separated,random,large,color,#0eaaaa,positive,neutral,NA,NA,NA
1,0,171,judge,12,6,6,separated,random,large,color,NA,positive,neutral,arrowup,1,2089
1,0,172,cue,12,6,6,separated,random,large,color,#e21212,neutral,neutral,NA,NA,NA
1,0,172,judge,12,6,6,separated,random,large,color,NA,neutral,neutral,arrowdown,1,2604
1,0,173,cue,12,6,6,separated,random,large,color,#0eaaaa,neutral,neutral,NA,NA,NA
1,0,173,judge,12,6,6,separated,random,large,color,NA,neutral,neutral,arrowdown,1,2383
1,0,174,cue,12,6,6,separated,random,large,color,#2b5bee,neutral,neutral,NA,NA,NA
1,0,174,judge,12,6,6,separated,random,large,color,NA,neutral,neutral,arrowdown,1,1265
1,0,175,cue,12,6,6,separated,random,large,color,#ecb718,negative,neutral,NA,NA,NA
1,0,175,judge,12,6,6,separated,random,large,color,NA,negative,neutral,arrowdown,1,2177
1,0,176,cue,12,6,6,separated,random,large,color,#ecb718,neutral,neutral,NA,NA,NA
1,0,176,judge,12,6,6,separated,random,large,color,NA,neutral,neutral,arrowdown,1,1346
1,0,177,cue,12,6,6,separated,random,large,color,#ecb718,negative,neutral,NA,NA,NA
1,0,177,judge,12,6,6,separated,random,large,color,NA,negative,neutral,arrowup,1,2041
1,0,178,cue,12,6,6,separated,random,large,color,#e21212,neutral,neutral,NA,NA,NA
1,0,178,judge,12,6,6,separated,random,large,color,NA,neutral,neutral,arrowup,1,2609
1,0,179,cue,12,6,6,separated,random,large,color,#ecb718,neutral,neutral,NA,NA,NA
1,0,179,judge,12,6,6,separated,random,large,color,NA,neutral,neutral,arrowdown,1,2719
1,0,180,cue,12,6,6,separated,random,large,color,#660fbd,neutral,neutral,NA,NA,NA
1,0,180,judge,12,6,6,separated,random,large,color,NA,neutral,neutral,arrowup,1,1953
1,0,181,cue,12,6,6,separated,random,large,color,#52970c,neutral,neutral,NA,NA,NA
1,0,181,judge,12,6,6,separated,random,large,color,NA,neutral,neutral,arrowup,1,3162
1,0,182,cue,12,6,6,separated,random,large,color,#e713b2,neutral,neutral,NA,NA,NA
1,0,182,judge,12,6,6,separated,random,large,color,NA,neutral,neutral,arrowup,1,2802
1,0,183,cue,12,6,6,separated,random,large,color,#e21212,negative,neutral,NA,NA,NA
1,0,183,judge,12,6,6,separated,random,large,color,NA,negative,neutral,arrowup,1,3835
1,0,184,cue,12,6,6,separated,random,large,color,#0eaaaa,negative,neutral,NA,NA,NA
1,0,184,judge,12,6,6,separated,random,large,color,NA,negative,neutral,arrowup,1,1241
1,0,185,cue,12,6,6,separated,random,large,color,#2b5bee,neutral,neutral,NA,NA,NA
1,0,185,judge,12,6,6,separated,random,large,color,NA,neutral,neutral,arrowup,1,2430
1,0,186,cue,12,6,6,separated,random,large,color,#ecb718,neutral,neutral,NA,NA,NA
1,0,186,judge,12,6,6,separated,random,large,color,NA,neutral,neutral,arrowup,1,2737
1,0,187,cue,12,6,6,separated,random,large,color,#2b5bee,positive,neutral,NA,NA,NA
1,0,187,judge,12,6,6,separated,random,large,color,NA,positive,neutral,arrowdown,1,2077
1,0,188,cue,12,6,6,separated,random,large,color,#52970c,neutral,neutral,NA,NA,NA
1,0,188,judge,12,6,6,separated,random,large,color,NA,neutral,neutral,arrowup,1,2583
1,1,0,cue,12,6,6,intermixed,random,large,color,#e713b2,neutral,neutral,NA,NA,NA
1,1,0,judge,12,6,6,intermixed,random,large,color,NA,neutral,neutral,arrowdown,1,2465
1,1,1,cue,12,6,6,intermixed,random,large,color,#e21212,neutral,neutral,NA,NA,NA
1,1,1,judge,12,6,6,intermixed,random,large,color,NA,neutral,neutral,arrowdown,1,2283
1,1,2,cue,12,6,6,intermixed,random,large,color,#660fbd,neutral,neutral,NA,NA,NA
1,1,2,judge,12,6,6,intermixed,random,large,color,NA,neutral,neutral,arrowdown,1,1784
1,1,3,cue,12,6,6,intermixed,random,large,color,#0eaaaa,neutral,neutral,NA,NA,NA
1,1,3,judge,12,6,6,intermixed,random,large,color,NA,neutral,neutral,arrowup,1,2057
1,1,4,cue,12,6,6,intermixed,random,large,color,#660fbd,neutral,neutral,NA,NA,NA
1,1,4,judge,12,6,6,intermixed,random,large,color,NA,neutral,neutral,arrowdown,1,3491
1,1,5,cue,12,6,6,intermixed,random,large,color,#2b5bee,neutral,neutral,NA,NA,NA
1,1,5,judge,12,6,6,intermixed,random,large,color,NA,neutral,neutral,arrowdown,1,1825
1,1,6,cue,12,6,6,intermixed,random,large,color,#52970c,negative,neutral,NA,NA,NA
1,1,6,judge,12,6,6,intermixed,random,large,color,NA,negative,neutral,arrowup,1,2078
1,1,7,cue,12,6,6,intermixed,random,large,color,#e713b2,positive,neutral,NA,NA,NA
1,1,7,judge,12,6,6,intermixed,random,large,color,NA,positive,neutral,arrowdown,1,2100
1,1,8,cue,12,6,6,intermixed,random,large,color,#52970c,negative,neutral,NA,NA,NA
1,1,8,judge,12,6,6,intermixed,random,large,color,NA,negative,neutral,arrowdown,1,2796
1,1,9,cue,12,6,6,intermixed,random,large,color,#660fbd,neutral,neutral,NA,NA,NA
1,1,9,judge,12,6,6,intermixed,random,large,color,NA,neutral,neutral,arrowup,1,2590
1,1,10,cue,12,6,6,intermixed,random,large,color,#e21212,positive,neutral,NA,NA,NA
1,1,10,judge,12,6,6,intermixed,random,large,color,NA,positive,neutral,arrowdown,1,1311
1,1,11,cue,12,6,6,intermixed,random,large,color,#e21212,negative,neutral,NA,NA,NA
1,1,11,judge,12,6,6,intermixed,random,large,color,NA,negative,neutral,arrowdown,1,2040
1,1,12,cue,12,6,6,intermixed,random,large,color,#e21212,neutral,neutral,NA,NA,NA
1,1,12,judge,12,6,6,intermixed,random,large,color,NA,neutral,neutral,arrowdown,1,1270
1,1,13,cue,12,6,6,intermixed,random,large,color,#0eaaaa,neutral,neutral,NA,NA,NA
1,1,13,judge,12,6,6,intermixed,random,large,color,NA,neutral,neutral,arrowup,1,2815
1,1,14,cue,12,6,6,intermixed,random,large,color,#ecb718,neutral,neutral,NA,NA,NA
1,1,14,judge,12,6,6,intermixed,random,large,color,NA,neutral,neutral,arrowdown,1,1444
1,1,15,cue,12,6,6,intermixed,random,large,color,#e21212,neutral,neutral,NA,NA,NA
1,1,15,judge,12,6,6,intermixed,random,large,color,NA,neutral,neutral,arrowdown,1,4092
1,1,16,cue,12,6,6,intermixed,random,large,color,#ecb718,neutral,neutral,NA,NA,NA
1,1,16,judge,12,6,6,intermixed,random,large,color,NA,neutral,neutral,arrowup,1,2632
1,1,17,cue,12,6,6,intermixed,random,large,color,#e21212,neutral,neutral,NA,NA,NA
1,1,17,judge,12,6,6,intermixed,random,large,color,NA,neutral,neutral,arrowup,1,2192
1,1,18,cue,12,6,6,intermixed,random,large,color,#e21212,neutral,neutral,NA,NA,NA
1,1,18,judge,12,6,6,intermixed,random,large,color,NA,neutral,neutral,arrowup,1,1945
1,1,19,cue,12,6,6,intermixed,random,large,color,#0eaaaa,neutral,neutral,NA,NA,NA
1,1,19,judge,12,6,6,intermixed,random,large,color,NA,neutral,neutral,arrowdown,1,1293
1,1,20,cue,12,6,6,intermixed,random,large,color,#e713b2,negative,neutral,NA,NA,NA
1,1,20,judge,12,6,6,intermixed,random,large,color,NA,negative,neutral,arrowup,1,1546
1,1,21,cue,12,6,6,intermixed,random,large,color,#ecb718,neutral,neutral,NA,NA,NA
1,1,21,judge,12,6,6,intermixed,random,large,color,NA,neutral,neutral,arrowup,1,2783
1,1,22,cue,12,6,6,intermixed,random,large,color,#e21212,neutral,neutral,NA,NA,NA
1,1,22,judge,12,6,6,intermixed,random,large,color,NA,neutral,neutral,arrowdown,1,1329
1,1,23,cue,12,6,6,intermixed,random,large,color,#ecb718,neutral,neutral,NA,NA,NA
1,1,23,judge,12,6,6,intermixed,random,large,color,NA,neutral,neutral,arrowup,1,1250
1,1,24,cue,12,6,6,intermixed,random,large,color,#660fbd,positive,neutral,NA,NA,NA
1,1,24,judge,12,6,6,intermixed,random,large,color,NA,positive,neutral,arrowdown,1,1723
1,1,25,cue,12,6,6,intermixed,random,large,color,#52970c,neutral,neutral,NA,NA,NA
1,1,25,judge,12,6,6,intermixed,random,large,color,NA,neutral,neutral,arrowup,1,1880
1,1,26,cue,12,6,6,intermixed,random,large,color,#ecb718,negative,neutral,NA,NA,NA
1,1,26,judge,12,6,6,intermixed,random,large,color,NA,negative,neutral,arrowup,1,1706
1,1,27,cue,12,6,6,intermixed,random,large,color,#0eaaaa,neutral,neutral,NA,NA,NA
1,1,27,judge,12,6,6,intermixed,random,large,color,NA,neutral,neutral,arrowdown,1,2894
1,1,28,cue,12,6,6,intermixed,random,large,color,#e713b2,neutral,neutral,NA,NA,NA
1,1,28,judge,12,6,6,intermixed,random,large,color,NA,neutral,neutral,arrowup,1,2548
1,1,29,cue,12,6,6,intermixed,random,large,color,#0eaaaa,neutral,neutral,NA,NA,NA
1,1,29,judge,12,6,6,intermixed,random,large,color,NA,neutral,neutral,arrowdown,1,1495
1,1,30,cue,12,6,6,intermixed,random,large,color,#52970c,positive,neutral,NA,NA,NA
1,1,30,judge,12,6,6,intermixed,random,large,color,NA,positive,neutral,arrowup,1,1703
1,1,31,cue,12,6,6,intermixed,random,large,color,#ecb718,neutral,neutral,NA,NA,NA
1,1,31,judge,12,6,6,intermixed,random,large,color,NA,neutral,neutral,arrowup,1,2689
1,1,32,cue,12,6,6,intermixed,random,large,color,#0eaaaa,neutral,neutral,NA,NA,NA
1,1,32,judge,12,6,6,intermixed,random,large,color,NA,neutral,neutral,arrowdown,1,2189
1,1,33,cue,12,6,6,intermixed,random,large,color,#ecb718,positive,neutral,NA,NA,NA
1,1,33,judge,12,6,6,intermixed,random,large,color,NA,positive,neutral,arrowup,1,1528
1,1,34,cue,12,6,6,intermixed,random,large,color,#2b5bee,neutral,neutral,NA,NA,NA
1,1,34,judge,12,6,6,intermixed,random,large,color,NA,neutral,neutral,arrowup,1,2915
1,1,35,cue,12,6,6,intermixed,random,large,color,#ecb718,neutral,neutral,NA,NA,NA
1,1,35,judge,12,6,6,intermixed,random,large,color,NA,neutral,neutral,arrowup,1,3165
1,1,36,cue,12,6,6,intermixed,random,large,color,#e21212,neutral,neutral,NA,NA,NA
1,1,36,judge,12,6,6,intermixed,random,large,color,NA,neutral,neutral,arrowup,1,2658
1,1,37,cue,12,6,6,intermixed,random,large,color,#ecb718,neutral,neutral,NA,NA,NA
1,1,37,judge,12,6,6,intermixed,random,large,color,NA,neutral,neutral,arrowdown,1,1644
1,1,38,cue,12,6,6,intermixed,random,large,color,#660fbd,neutral,neutral,NA,NA,NA
1,1,38,judge,12,6,6,intermixed,random,large,color,NA,neutral,neutral,arrowup,1,1146
1,1,39,cue,12,6,6,intermixed,random,large,color,#0eaaaa,positive,neutral,NA,NA,NA
1,1,39,judge,12,6,6,intermixed,random,large,color,NA,positive,neutral,arrowdown,1,1335
1,1,40,cue,12,6,6,intermixed,random,large,color,#ecb718,neutral,neutral,NA,NA,NA
1,1,40,judge,12,6,6,intermixed,random,large,color,NA,neutral,neutral,arrowdown,1,2264
1,1,41,cue,12,6,6,intermixed,random,large,color,#ecb718,neutral,neutral,NA,NA,NA
1,1,41,judge,12,6,6,intermixed,random,large,color,NA,neutral,neutral,arrowup,1,1216
1,1,42,cue,12,6,6,intermixed,random,large,color,#52970c,neutral,neutral,NA,NA,NA
1,1,42,judge,12,6,6,intermixed,random,large,color,NA,neutral,neutral,arrowup,1,1673
1,1,43,cue,12,6,6,intermixed,random,large,color,#660fbd,positive,neutral,NA,NA,NA
1,1,43,judge,12,6,6,intermixed,random,large,color,NA,positive,neutral,arrowdown,1,1219
1,1,44,cue,12,6,6,intermixed,random,large,color,#ecb718,neutral,neutral,NA,NA,NA
1,1,44,judge,12,6,6,intermixed,random,large,color,NA,neutral,neutral,arrowdown,1,1210
1,1,45,cue,12,6,6,intermixed,random,large,color,#52970c,neutral,neutral,NA,NA,NA
1,1,45,judge,12,6,6,intermixed,random,large,color,NA,neutral,neutral,arrowdown,1,1837
1,1,46,cue,12,6,6,intermixed,random,large,color,#0eaaaa,negative,neutral,NA,NA,NA
1,1,46,judge,12,6,6,intermixed,random,large,color,NA,negative,neutral,arrowup,1,3001
1,1,47,cue,12,6,6,intermixed,random,large,color,#ecb718,neutral,neutral,NA,NA,NA
1,1,47,judge,12,6,6,intermixed,random,large,color,NA,neutral,neutral,arrowdown,1,1200
1,1,48,cue,12,6,6,intermixed,random,large,color,#ecb718,neutral,neutral,NA,NA,NA
1,1,48,judge,12,6,6,intermixed,random,large,color,NA,neutral,neutral,arrowup,1,1359
1,1,49,cue,12,6,6,intermixed,random,large,color,#ecb718,neutral,neutral,NA,NA,NA
1,1,49,judge,12,6,6,intermixed,random,large,color,NA,neutral,neutral,arrowup,1,1748
1,1,50,cue,12,6,6,intermixed,random,large,color,#e713b2,negative,neutral,NA,NA,NA
1,1,50,judge,12,6,6,intermixed,random,large,color,NA,negative,neutral,arrowup,1,1132
1,1,51,cue,12,6,6,intermixed,random,large,color,#52970c,neutral,neutral,NA,NA,NA
1,1,51,judge,12,6,6,intermixed,random,large,color,NA,neutral,neutral,arrowup,1,2057
1,1,52,cue,12,6,6,intermixed,random,large,color,#e21212,negative,neutral,NA,NA,NA
1,1,52,judge,12,6,6,intermixed,random,large,color,NA,negative,neutral,arrowup,1,1932
1,1,53,cue,12,6,6,intermixed,random,large,color,#e713b2,neutral,neutral,NA,NA,NA
1,1,53,judge,12,6,6,intermixed,random,large,color,NA,neutral,neutral,arrowdown,1,1987
1,1,54,cue,12,6,6,intermixed,random,large,color,#e21212,neutral,neutral,NA,NA,NA
1,1,54,judge,12,6,6,intermixed,random,large,color,NA,neutral,neutral,arrowdown,1,1686
1,1,55,cue,12,6,6,intermixed,random,large,color,#ecb718,neutral,neutral,NA,NA,NA
1,1,55,judge,12,6,6,intermixed,random,large,color,NA,neutral,neutral,arrowdown,1,1385
1,1,56,cue,12,6,6,intermixed,random,large,color,#2b5bee,positive,neutral,NA,NA,NA
1,1,56,judge,12,6,6,intermixed,random,large,color,NA,positive,neutral,arrowup,1,1956
1,1,57,cue,12,6,6,intermixed,random,large,color,#52970c,neutral,neutral,NA,NA,NA
1,1,57,judge,12,6,6,intermixed,random,large,color,NA,neutral,neutral,arrowdown,1,1991
1,1,58,cue,12,6,6,intermixed,random,large,color,#e713b2,negative,neutral,NA,NA,NA
1,1,58,judge,12,6,6,intermixed,random,large,color,NA,negative,neutral,arrowdown,1,1344
1,1,59,cue,12,6,6,intermixed,random,large,color,#2b5bee,negative,neutral,NA,NA,NA
1,1,59,judge,12,6,6,intermixed,random,large,color,NA,negative,neutral,arrowdown,1,2192
1,1,60,cue,12,6,6,intermixed,random,large,color,#660fbd,neutral,neutral,NA,NA,NA
1,1,60,judge,12,6,6,intermixed,random,large,color,NA,neutral,neutral,arrowup,1,1796
1,1,61,cue,12,6,6,intermixed,random,large,color,#e713b2,neutral,neutral,NA,NA,NA
1,1,61,judge,12,6,6,intermixed,random,large,color,NA,neutral,neutral,arrowdown,1,1797
1,1,62,cue,12,6,6,intermixed,random,large,color,#660fbd,neutral,neutral,NA,NA,NA
1,1,62,judge,12,6,6,intermixed,random,large,color,NA,neutral,neutral,arrowup,1,2610
1,1,63,cue,12,6,6,intermixed,random,large,color,#e713b2,neutral,neutral,NA,NA,NA
1,1,63,judge,12,6,6,intermixed,random,large,color,NA,neutral,neutral,arrowup,1,2298
1,1,64,cue,12,6,6,intermixed,random,large,color,#52970c,negative,neutral,NA,NA,NA
1,1,64,judge,12,6,6,intermixed,random,large,color,NA,negative,neutral,arrowdown,1,1452
1,1,65,cue,12,6,6,intermixed,random,large,color,#52970c,positive,neutral,NA,NA,NA
1,1,65,judge,12,6,6,intermixed,random,large,color,NA,positive,neutral,arrowup,1,1252
1,1,66,cue,12,6,6,intermixed,random,large,color,#660fbd,neutral,neutral,NA,NA,NA
1,1,66,judge,12,6,6,intermixed,random,large,color,NA,neutral,neutral,arrowdown,1,2054
1,1,67,cue,12,6,6,intermixed,random,large,color,#0eaaaa,neutral,neutral,NA,NA,NA
1,1,67,judge,12,6,6,intermixed,random,large,color,NA,neutral,neutral,arrowdown,1,2275
1,1,68,cue,12,6,6,intermixed,random,large,color,#52970c,neutral,neutral,NA,NA,NA
1,1,68,judge,12,6,6,intermixed,random,large,color,NA,neutral,neutral,arrowdown,1,1421
1,1,69,cue,12,6,6,intermixed,random,large,color,#e21212,positive,neutral,NA,NA,NA
1,1,69,judge,12,6,6,intermixed,random,large,color,NA,positive,neutral,arrowup,1,1491
1,1,70,cue,12,6,6,intermixed,random,large,color,#e21212,neutral,neutral,NA,NA,NA
1,1,70,judge,12,6,6,intermixed,random,large,color,NA,neutral,neutral,arrowdown,1,1456
1,1,71,cue,12,6,6,intermixed,random,large,color,#0eaaaa,positive,neutral,NA,NA,NA
1,1,71,judge,12,6,6,intermixed,random,large,color,NA,positive,neutral,arrowup,1,1284
1,1,72,cue,12,6,6,intermixed,random,large,color,#ecb718,neutral,neutral,NA,NA,NA
1,1,72,judge,12,6,6,intermixed,random,large,color,NA,neutral,neutral,arrowup,1,3035
1,1,73,cue,12,6,6,intermixed,random,large,color,#0eaaaa,neutral,neutral,NA,NA,NA
1,1,73,judge,12,6,6,intermixed,random,large,color,NA,neutral,neutral,arrowup,1,2560
1,1,74,cue,12,6,6,intermixed,random,large,color,#ecb718,positive,neutral,NA,NA,NA
1,1,74,judge,12,6,6,intermixed,random,large,color,NA,positive,neutral,arrowdown,1,2108
1,1,75,cue,12,6,6,intermixed,random,large,color,#52970c,neutral,neutral,NA,NA,NA
1,1,75,judge,12,6,6,intermixed,random,large,color,NA,neutral,neutral,arrowdown,1,982
1,1,76,cue,12,6,6,intermixed,random,large,color,#ecb718,positive,neutral,NA,NA,NA
1,1,76,judge,12,6,6,intermixed,random,large,color,NA,positive,neutral,arrowup,1,1271
1,1,77,cue,12,6,6,intermixed,random,large,color,#ecb718,neutral,neutral,NA,NA,NA
1,1,77,judge,12,6,6,intermixed,random,large,color,NA,neutral,neutral,arrowup,1,2432
1,1,78,cue,12,6,6,intermixed,random,large,color,#ecb718,positive,neutral,NA,NA,NA
1,1,78,judge,12,6,6,intermixed,random,large,color,NA,positive,neutral,arrowup,1,1471
1,1,79,cue,12,6,6,intermixed,random,large,color,#ecb718,neutral,neutral,NA,NA,NA
1,1,79,judge,12,6,6,intermixed,random,large,color,NA,neutral,neutral,arrowup,1,1401
1,1,80,cue,12,6,6,intermixed,random,large,color,#e21212,neutral,neutral,NA,NA,NA
1,1,80,judge,12,6,6,intermixed,random,large,color,NA,neutral,neutral,arrowup,1,3691
1,1,81,cue,12,6,6,intermixed,random,large,color,#52970c,neutral,neutral,NA,NA,NA
1,1,81,judge,12,6,6,intermixed,random,large,color,NA,neutral,neutral,arrowdown,1,3599
1,1,82,cue,12,6,6,intermixed,random,large,color,#e21212,neutral,neutral,NA,NA,NA
1,1,82,judge,12,6,6,intermixed,random,large,color,NA,neutral,neutral,arrowdown,1,1680
1,1,83,cue,12,6,6,intermixed,random,large,color,#2b5bee,neutral,neutral,NA,NA,NA
1,1,83,judge,12,6,6,intermixed,random,large,color,NA,neutral,neutral,arrowup,1,1275
1,1,84,cue,12,6,6,intermixed,random,large,color,#ecb718,neutral,neutral,NA,NA,NA
1,1,84,judge,12,6,6,intermixed,random,large,color,NA,neutral,neutral,arrowup,1,1069
1,1,85,cue,12,6,6,intermixed,random,large,color,#52970c,neutral,neutral,NA,NA,NA
1,1,85,judge,12,6,6,intermixed,random,large,color,NA,neutral,neutral,arrowdown,1,3361
1,1,86,cue,12,6,6,intermixed,random,large,color,#e713b2,neutral,neutral,NA,NA,NA
1,1,86,judge,12,6,6,intermixed,random,large,color,NA,neutral,neutral,arrowdown,1,1504
1,1,87,cue,12,6,6,intermixed,random,large,color,#ecb718,negative,neutral,NA,NA,NA
1,1,87,judge,12,6,6,intermixed,random,large,color,NA,negative,neutral,arrowdown,1,1776
1,1,88,cue,12,6,6,intermixed,random,large,color,#2b5bee,neutral,neutral,NA,NA,NA
1,1,88,judge,12,6,6,intermixed,random,large,color,NA,neutral,neutral,arrowdown,1,2275
1,1,89,cue,12,6,6,intermixed,random,large,color,#0eaaaa,negative,neutral,NA,NA,NA
1,1,89,judge,12,6,6,intermixed,random,large,color,NA,negative,neutral,arrowup,1,1970
1,1,90,cue,12,6,6,intermixed,random,large,color,#e21212,neutral,neutral,NA,NA,NA
1,1,90,judge,12,6,6,intermixed,random,large,color,NA,neutral,neutral,arrowdown,1,2395
1,1,91,cue,12,6,6,intermixed,random,large,color,#2b5bee,neutral,neutral,NA,NA,NA
1,1,91,judge,12,6,6,intermixed,random,large,color,NA,neutral,neutral,arrowup,1,1334
1,1,92,cue,12,6,6,intermixed,random,large,color,#ecb718,positive,neutral,NA,NA,NA
1,1,92,judge,12,6,6,intermixed,random,large,color,NA,positive,neutral,arrowdown,1,1208
1,1,93,cue,12,6,6,intermixed,random,large,color,#0eaaaa,neutral,neutral,NA,NA,NA
1,1,93,judge,12,6,6,intermixed,random,large,color,NA,neutral,neutral,arrowdown,1,1789
1,1,94,cue,12,6,6,intermixed,random,large,color,#660fbd,neutral,neutral,NA,NA,NA
1,1,94,judge,12,6,6,intermixed,random,large,color,NA,neutral,neutral,arrowdown,1,2395
1,1,95,cue,12,6,6,intermixed,random,large,color,#2b5bee,negative,neutral,NA,NA,NA
1,1,95,judge,12,6,6,intermixed,random,large,color,NA,negative,neutral,arrowdown,1,2390
1,1,96,cue,12,6,6,intermixed,random,large,color,#ecb718,neutral,neutral,NA,NA,NA
1,1,96,judge,12,6,6,intermixed,random,large,color,NA,neutral,neutral,arrowup,1,1200
1,1,97,cue,12,6,6,intermixed,random,large,color,#2b5bee,neutral,neutral,NA,NA,NA
1,1,97,judge,12,6,6,intermixed,random,large,color,NA,neutral,neutral,arrowup,1,2304
1,1,98,cue,12,6,6,intermixed,random,large,color,#660fbd,neutral,neutral,NA,NA,NA
1,1,98,judge,12,6,6,intermixed,random,large,color,NA,neutral,neutral,arrowup,1,1381
1,1,99,cue,12,6,6,intermixed,random,large,color,#52970c,neutral,neutral,NA,NA,NA
1,1,99,judge,12,6,6,intermixed,random,large,color,NA,neutral,neutral,arrowup,1,1542
1,1,100,cue,12,6,6,intermixed,random,large,color,#e21212,positive,neutral,NA,NA,NA
1,1,100,judge,12,6,6,intermixed,random,large,color,NA,positive,neutral,arrowup,1,1729
1,1,101,cue,12,6,6,intermixed,random,large,color,#e21212,neutral,neutral,NA,NA,NA
1,1,101,judge,12,6,6,intermixed,random,large,color,NA,neutral,neutral,arrowup,1,2787
1,1,102,cue,12,6,6,intermixed,random,large,color,#e713b2,neutral,neutral,NA,NA,NA
1,1,102,judge,12,6,6,intermixed,random,large,color,NA,neutral,neutral,arrowdown,1,3915
1,1,103,cue,12,6,6,intermixed,random,large,color,#52970c,neutral,neutral,NA,NA,NA
1,1,103,judge,12,6,6,intermixed,random,large,color,NA,neutral,neutral,arrowup,1,1137
1,1,104,cue,12,6,6,intermixed,random,large,color,#e21212,neutral,neutral,NA,NA,NA
1,1,104,judge,12,6,6,intermixed,random,large,color,NA,neutral,neutral,arrowup,1,1947
1,1,105,cue,12,6,6,intermixed,random,large,color,#0eaaaa,neutral,neutral,NA,NA,NA
1,1,105,judge,12,6,6,intermixed,random,large,color,NA,neutral,neutral,arrowup,1,1227
1,1,106,cue,12,6,6,intermixed,random,large,color,#0eaaaa,negative,neutral,NA,NA,NA
1,1,106,judge,12,6,6,intermixed,random,large,color,NA,negative,neutral,arrowdown,1,1313
1,1,107,cue,12,6,6,intermixed,random,large,color,#52970c,neutral,neutral,NA,NA,NA
1,1,107,judge,12,6,6,intermixed,random,large,color,NA,neutral,neutral,arrowup,1,2954
1,1,108,cue,12,6,6,intermixed,random,large,color,#2b5bee,positive,neutral,NA,NA,NA
1,1,108,judge,12,6,6,intermixed,random,large,color,NA,positive,neutral,arrowup,1,1443
1,1,109,cue,12,6,6,intermixed,random,large,color,#e21212,neutral,neutral,NA,NA,NA
1,1,109,judge,12,6,6,intermixed,random,large,color,NA,neutral,neutral,arrowdown,1,2194
1,1,110,cue,12,6,6,intermixed,random,large,color,#e21212,neutral,neutral,NA,NA,NA
1,1,110,judge,12,6,6,intermixed,random,large,color,NA,neutral,neutral,arrowdown,1,2646
1,1,111,cue,12,6,6,intermixed,random,large,color,#52970c,neutral,neutral,NA,NA,NA
1,1,111,judge,12,6,6,intermixed,random,large,color,NA,neutral,neutral,arrowup,1,2216
1,1,112,cue,12,6,6,intermixed,random,large,color,#e21212,neutral,neutral,NA,NA,NA
1,1,112,judge,12,6,6,intermixed,random,large,color,NA,neutral,neutral,arrowdown,1,2118
1,1,113,cue,12,6,6,intermixed,random,large,color,#52970c,neutral,neutral,NA,NA,NA
1,1,113,judge,12,6,6,intermixed,random,large,color,NA,neutral,neutral,arrowdown,1,3008
1,1,114,cue,12,6,6,intermixed,random,large,color,#2b5bee,neutral,neutral,NA,NA,NA
1,1,114,judge,12,6,6,intermixed,random,large,color,NA,neutral,neutral,arrowdown,1,1587
1,1,115,cue,12,6,6,intermixed,random,large,color,#2b5bee,neutral,neutral,NA,NA,NA
1,1,115,judge,12,6,6,intermixed,random,large,color,NA,neutral,neutral,arrowdown,1,2166
1,1,116,cue,12,6,6,intermixed,random,large,color,#e713b2,neutral,neutral,NA,NA,NA
1,1,116,judge,12,6,6,intermixed,random,large,color,NA,neutral,neutral,arrowup,1,1410
1,1,117,cue,12,6,6,intermixed,random,large,color,#660fbd,neutral,neutral,NA,NA,NA
1,1,117,judge,12,6,6,intermixed,random,large,color,NA,neutral,neutral,arrowdown,1,1349
1,1,118,cue,12,6,6,intermixed,random,large,color,#e713b2,neutral,neutral,NA,NA,NA
1,1,118,judge,12,6,6,intermixed,random,large,color,NA,neutral,neutral,arrowdown,1,2184
1,1,119,cue,12,6,6,intermixed,random,large,color,#52970c,neutral,neutral,NA,NA,NA
1,1,119,judge,12,6,6,intermixed,random,large,color,NA,neutral,neutral,arrowdown,1,2071
1,1,120,cue,12,6,6,intermixed,random,large,color,#2b5bee,neutral,neutral,NA,NA,NA
1,1,120,judge,12,6,6,intermixed,random,large,color,NA,neutral,neutral,arrowup,1,1780
1,1,121,cue,12,6,6,intermixed,random,large,color,#2b5bee,negative,neutral,NA,NA,NA
1,1,121,judge,12,6,6,intermixed,random,large,color,NA,negative,neutral,arrowdown,1,2188
1,1,122,cue,12,6,6,intermixed,random,large,color,#52970c,positive,neutral,NA,NA,NA
1,1,122,judge,12,6,6,intermixed,random,large,color,NA,positive,neutral,arrowup,1,989
1,1,123,cue,12,6,6,intermixed,random,large,color,#e21212,neutral,neutral,NA,NA,NA
1,1,123,judge,12,6,6,intermixed,random,large,color,NA,neutral,neutral,arrowdown,1,1140
1,1,124,cue,12,6,6,intermixed,random,large,color,#e713b2,negative,neutral,NA,NA,NA
1,1,124,judge,12,6,6,intermixed,random,large,color,NA,negative,neutral,arrowdown,1,1990
1,1,125,cue,12,6,6,intermixed,random,large,color,#e21212,neutral,neutral,NA,NA,NA
1,1,125,judge,12,6,6,intermixed,random,large,color,NA,neutral,neutral,arrowdown,1,1256
1,1,126,cue,12,6,6,intermixed,random,large,color,#0eaaaa,positive,neutral,NA,NA,NA
1,1,126,judge,12,6,6,intermixed,random,large,color,NA,positive,neutral,arrowup,1,988
1,1,127,cue,12,6,6,intermixed,random,large,color,#ecb718,neutral,neutral,NA,NA,NA
1,1,127,judge,12,6,6,intermixed,random,large,color,NA,neutral,neutral,arrowdown,1,2000
1,1,128,cue,12,6,6,intermixed,random,large,color,#52970c,neutral,neutral,NA,NA,NA
1,1,128,judge,12,6,6,intermixed,random,large,color,NA,neutral,neutral,arrowdown,1,7920
1,1,129,cue,12,6,6,intermixed,random,large,color,#0eaaaa,neutral,neutral,NA,NA,NA
1,1,129,judge,12,6,6,intermixed,random,large,color,NA,neutral,neutral,arrowdown,1,1382
1,1,130,cue,12,6,6,intermixed,random,large,color,#52970c,positive,neutral,NA,NA,NA
1,1,130,judge,12,6,6,intermixed,random,large,color,NA,positive,neutral,arrowup,1,1294
1,1,131,cue,12,6,6,intermixed,random,large,color,#2b5bee,neutral,neutral,NA,NA,NA
1,1,131,judge,12,6,6,intermixed,random,large,color,NA,neutral,neutral,arrowup,1,1108
1,1,132,cue,12,6,6,intermixed,random,large,color,#ecb718,negative,neutral,NA,NA,NA
1,1,132,judge,12,6,6,intermixed,random,large,color,NA,negative,neutral,arrowdown,1,1586
1,1,133,cue,12,6,6,intermixed,random,large,color,#0eaaaa,negative,neutral,NA,NA,NA
1,1,133,judge,12,6,6,intermixed,random,large,color,NA,negative,neutral,arrowup,1,2172
1,1,134,cue,12,6,6,intermixed,random,large,color,#ecb718,positive,neutral,NA,NA,NA
1,1,134,judge,12,6,6,intermixed,random,large,color,NA,positive,neutral,arrowdown,1,1168
1,1,135,cue,12,6,6,intermixed,random,large,color,#ecb718,neutral,neutral,NA,NA,NA
1,1,135,judge,12,6,6,intermixed,random,large,color,NA,neutral,neutral,arrowup,1,4055
1,1,136,cue,12,6,6,intermixed,random,large,color,#ecb718,neutral,neutral,NA,NA,NA
1,1,136,judge,12,6,6,intermixed,random,large,color,NA,neutral,neutral,arrowup,1,1396
1,1,137,cue,12,6,6,intermixed,random,large,color,#0eaaaa,neutral,neutral,NA,NA,NA
1,1,137,judge,12,6,6,intermixed,random,large,color,NA,neutral,neutral,arrowdown,1,1689
1,1,138,cue,12,6,6,intermixed,random,large,color,#2b5bee,neutral,neutral,NA,NA,NA
1,1,138,judge,12,6,6,intermixed,random,large,color,NA,neutral,neutral,arrowup,1,890
1,1,139,cue,12,6,6,intermixed,random,large,color,#e713b2,neutral,neutral,NA,NA,NA
1,1,139,judge,12,6,6,intermixed,random,large,color,NA,neutral,neutral,arrowup,1,2211
1,1,140,cue,12,6,6,intermixed,random,large,color,#e713b2,neutral,neutral,NA,NA,NA
1,1,140,judge,12,6,6,intermixed,random,large,color,NA,neutral,neutral,arrowup,1,1673
1,1,141,cue,12,6,6,intermixed,random,large,color,#e21212,neutral,neutral,NA,NA,NA
1,1,141,judge,12,6,6,intermixed,random,large,color,NA,neutral,neutral,arrowdown,1,2848
1,1,142,cue,12,6,6,intermixed,random,large,color,#660fbd,neutral,neutral,NA,NA,NA
1,1,142,judge,12,6,6,intermixed,random,large,color,NA,neutral,neutral,arrowdown,1,2394
1,1,143,cue,12,6,6,intermixed,random,large,color,#52970c,positive,neutral,NA,NA,NA
1,1,143,judge,12,6,6,intermixed,random,large,color,NA,positive,neutral,arrowup,1,1652
1,1,144,cue,12,6,6,intermixed,random,large,color,#e21212,neutral,neutral,NA,NA,NA
1,1,144,judge,12,6,6,intermixed,random,large,color,NA,neutral,neutral,arrowup,1,2134
1,1,145,cue,12,6,6,intermixed,random,large,color,#e21212,negative,neutral,NA,NA,NA
1,1,145,judge,12,6,6,intermixed,random,large,color,NA,negative,neutral,arrowup,1,4840
1,1,146,cue,12,6,6,intermixed,random,large,color,#e713b2,neutral,neutral,NA,NA,NA
1,1,146,judge,12,6,6,intermixed,random,large,color,NA,neutral,neutral,arrowup,1,3763
1,1,147,cue,12,6,6,intermixed,random,large,color,#2b5bee,neutral,neutral,NA,NA,NA
1,1,147,judge,12,6,6,intermixed,random,large,color,NA,neutral,neutral,arrowup,1,5292
1,1,148,cue,12,6,6,intermixed,random,large,color,#e713b2,negative,neutral,NA,NA,NA
1,1,148,judge,12,6,6,intermixed,random,large,color,NA,negative,neutral,arrowdown,1,2203
1,1,149,cue,12,6,6,intermixed,random,large,color,#e21212,neutral,neutral,NA,NA,NA
1,1,149,judge,12,6,6,intermixed,random,large,color,NA,neutral,neutral,arrowdown,1,1306
1,1,150,cue,12,6,6,intermixed,random,large,color,#e21212,neutral,neutral,NA,NA,NA
1,1,150,judge,12,6,6,intermixed,random,large,color,NA,neutral,neutral,arrowdown,1,1603
1,1,151,cue,12,6,6,intermixed,random,large,color,#e713b2,neutral,neutral,NA,NA,NA
1,1,151,judge,12,6,6,intermixed,random,large,color,NA,neutral,neutral,arrowdown,1,1937
1,1,152,cue,12,6,6,intermixed,random,large,color,#2b5bee,neutral,neutral,NA,NA,NA
1,1,152,judge,12,6,6,intermixed,random,large,color,NA,neutral,neutral,arrowup,1,1884
1,1,153,cue,12,6,6,intermixed,random,large,color,#e21212,neutral,neutral,NA,NA,NA
1,1,153,judge,12,6,6,intermixed,random,large,color,NA,neutral,neutral,arrowup,1,3392
1,1,154,cue,12,6,6,intermixed,random,large,color,#e21212,negative,neutral,NA,NA,NA
1,1,154,judge,12,6,6,intermixed,random,large,color,NA,negative,neutral,arrowdown,1,3279
1,1,155,cue,12,6,6,intermixed,random,large,color,#52970c,negative,neutral,NA,NA,NA
1,1,155,judge,12,6,6,intermixed,random,large,color,NA,negative,neutral,arrowup,1,3067
1,1,156,cue,12,6,6,intermixed,random,large,color,#2b5bee,neutral,neutral,NA,NA,NA
1,1,156,judge,12,6,6,intermixed,random,large,color,NA,neutral,neutral,arrowup,1,2405
1,1,157,cue,12,6,6,intermixed,random,large,color,#e21212,neutral,neutral,NA,NA,NA
1,1,157,judge,12,6,6,intermixed,random,large,color,NA,neutral,neutral,arrowup,1,2296
1,1,158,cue,12,6,6,intermixed,random,large,color,#0eaaaa,negative,neutral,NA,NA,NA
1,1,158,judge,12,6,6,intermixed,random,large,color,NA,negative,neutral,arrowdown,1,3408
1,1,159,cue,12,6,6,intermixed,random,large,color,#52970c,neutral,neutral,NA,NA,NA
1,1,159,judge,12,6,6,intermixed,random,large,color,NA,neutral,neutral,arrowdown,1,1163
1,1,160,cue,12,6,6,intermixed,random,large,color,#ecb718,neutral,neutral,NA,NA,NA
1,1,160,judge,12,6,6,intermixed,random,large,color,NA,neutral,neutral,arrowdown,1,5074
1,1,161,cue,12,6,6,intermixed,random,large,color,#ecb718,neutral,neutral,NA,NA,NA
1,1,161,judge,12,6,6,intermixed,random,large,color,NA,neutral,neutral,arrowdown,1,1086
1,1,162,cue,12,6,6,intermixed,random,large,color,#660fbd,neutral,neutral,NA,NA,NA
1,1,162,judge,12,6,6,intermixed,random,large,color,NA,neutral,neutral,arrowdown,1,1124
1,1,163,cue,12,6,6,intermixed,random,large,color,#e21212,neutral,neutral,NA,NA,NA
1,1,163,judge,12,6,6,intermixed,random,large,color,NA,neutral,neutral,arrowdown,1,1241
1,1,164,cue,12,6,6,intermixed,random,large,color,#660fbd,neutral,neutral,NA,NA,NA
1,1,164,judge,12,6,6,intermixed,random,large,color,NA,neutral,neutral,arrowup,1,1417
1,1,165,cue,12,6,6,intermixed,random,large,color,#e21212,neutral,neutral,NA,NA,NA
1,1,165,judge,12,6,6,intermixed,random,large,color,NA,neutral,neutral,arrowdown,1,1147
1,1,166,cue,12,6,6,intermixed,random,large,color,#ecb718,neutral,neutral,NA,NA,NA
1,1,166,judge,12,6,6,intermixed,random,large,color,NA,neutral,neutral,arrowup,1,2153
1,1,167,cue,12,6,6,intermixed,random,large,color,#52970c,neutral,neutral,NA,NA,NA
1,1,167,judge,12,6,6,intermixed,random,large,color,NA,neutral,neutral,arrowup,1,3898
1,1,168,cue,12,6,6,intermixed,random,large,color,#2b5bee,positive,neutral,NA,NA,NA
1,1,168,judge,12,6,6,intermixed,random,large,color,NA,positive,neutral,arrowdown,1,2194
1,1,169,cue,12,6,6,intermixed,random,large,color,#0eaaaa,neutral,neutral,NA,NA,NA
1,1,169,judge,12,6,6,intermixed,random,large,color,NA,neutral,neutral,arrowup,1,2816
1,1,170,cue,12,6,6,intermixed,random,large,color,#52970c,neutral,neutral,NA,NA,NA
1,1,170,judge,12,6,6,intermixed,random,large,color,NA,neutral,neutral,arrowdown,1,3125
1,1,171,cue,12,6,6,intermixed,random,large,color,#660fbd,positive,neutral,NA,NA,NA
1,1,171,judge,12,6,6,intermixed,random,large,color,NA,positive,neutral,arrowup,1,1616
1,1,172,cue,12,6,6,intermixed,random,large,color,#ecb718,positive,neutral,NA,NA,NA
1,1,172,judge,12,6,6,intermixed,random,large,color,NA,positive,neutral,arrowup,1,2256
1,1,173,cue,12,6,6,intermixed,random,large,color,#e21212,positive,neutral,NA,NA,NA
1,1,173,judge,12,6,6,intermixed,random,large,color,NA,positive,neutral,arrowup,1,1706
1,1,174,cue,12,6,6,intermixed,random,large,color,#0eaaaa,neutral,neutral,NA,NA,NA
1,1,174,judge,12,6,6,intermixed,random,large,color,NA,neutral,neutral,arrowdown,1,1263
1,1,175,cue,12,6,6,intermixed,random,large,color,#660fbd,positive,neutral,NA,NA,NA
1,1,175,judge,12,6,6,intermixed,random,large,color,NA,positive,neutral,arrowdown,1,1303
1,1,176,cue,12,6,6,intermixed,random,large,color,#ecb718,neutral,neutral,NA,NA,NA
1,1,176,judge,12,6,6,intermixed,random,large,color,NA,neutral,neutral,arrowdown,1,1460
1,1,177,cue,12,6,6,intermixed,random,large,color,#2b5bee,neutral,neutral,NA,NA,NA
1,1,177,judge,12,6,6,intermixed,random,large,color,NA,neutral,neutral,arrowup,1,2065
1,1,178,cue,12,6,6,intermixed,random,large,color,#52970c,neutral,neutral,NA,NA,NA
1,1,178,judge,12,6,6,intermixed,random,large,color,NA,neutral,neutral,arrowup,1,1667
1,1,179,cue,12,6,6,intermixed,random,large,color,#e21212,negative,neutral,NA,NA,NA
1,1,179,judge,12,6,6,intermixed,random,large,color,NA,negative,neutral,arrowup,1,2603
1,1,180,cue,12,6,6,intermixed,random,large,color,#ecb718,neutral,neutral,NA,NA,NA
1,1,180,judge,12,6,6,intermixed,random,large,color,NA,neutral,neutral,arrowup,1,1363
1,1,181,cue,12,6,6,intermixed,random,large,color,#2b5bee,neutral,neutral,NA,NA,NA
1,1,181,judge,12,6,6,intermixed,random,large,color,NA,neutral,neutral,arrowdown,1,1299
1,1,182,cue,12,6,6,intermixed,random,large,color,#0eaaaa,negative,neutral,NA,NA,NA
1,1,182,judge,12,6,6,intermixed,random,large,color,NA,negative,neutral,arrowdown,1,1936
1,1,183,cue,12,6,6,intermixed,random,large,color,#e21212,neutral,neutral,NA,NA,NA
1,1,183,judge,12,6,6,intermixed,random,large,color,NA,neutral,neutral,arrowdown,1,1557
1,1,184,cue,12,6,6,intermixed,random,large,color,#2b5bee,neutral,neutral,NA,NA,NA
1,1,184,judge,12,6,6,intermixed,random,large,color,NA,neutral,neutral,arrowup,1,1099
1,1,185,cue,12,6,6,intermixed,random,large,color,#2b5bee,neutral,neutral,NA,NA,NA
1,1,185,judge,12,6,6,intermixed,random,large,color,NA,neutral,neutral,arrowup,1,1834
1,1,186,cue,12,6,6,intermixed,random,large,color,#ecb718,neutral,neutral,NA,NA,NA
1,1,186,judge,12,6,6,intermixed,random,large,color,NA,neutral,neutral,arrowup,1,1808
1,1,187,cue,12,6,6,intermixed,random,large,color,#660fbd,negative,neutral,NA,NA,NA
1,1,187,judge,12,6,6,intermixed,random,large,color,NA,negative,neutral,arrowup,1,1342
1,1,188,cue,12,6,6,intermixed,random,large,color,#52970c,neutral,neutral,NA,NA,NA
1,1,188,judge,12,6,6,intermixed,random,large,color,NA,neutral,neutral,arrowdown,1,1051
2,0,0,cue,12,6,6,separated,random,large,color,#e713b2,negative,negative,NA,NA,NA
2,0,0,judge,12,6,6,separated,random,large,color,NA,negative,negative,arrowup,1,2771
2,0,1,cue,12,6,6,separated,random,large,color,#e713b2,negative,negative,NA,NA,NA
2,0,1,judge,12,6,6,separated,random,large,color,NA,negative,negative,arrowup,1,2612
2,0,2,cue,12,6,6,separated,random,large,color,#e21212,negative,negative,NA,NA,NA
2,0,2,judge,12,6,6,separated,random,large,color,NA,negative,negative,arrowup,1,2527
2,0,3,cue,12,6,6,separated,random,large,color,#2b5bee,negative,negative,NA,NA,NA
2,0,3,judge,12,6,6,separated,random,large,color,NA,negative,negative,arrowup,1,1161
2,0,4,cue,12,6,6,separated,random,large,color,#2b5bee,negative,negative,NA,NA,NA
2,0,4,judge,12,6,6,separated,random,large,color,NA,negative,negative,arrowup,1,1121
2,0,5,cue,12,6,6,separated,random,large,color,#2b5bee,neutral,negative,NA,NA,NA
2,0,5,judge,12,6,6,separated,random,large,color,NA,neutral,negative,arrowdown,1,2331
2,0,6,cue,12,6,6,separated,random,large,color,#2b5bee,negative,negative,NA,NA,NA
2,0,6,judge,12,6,6,separated,random,large,color,NA,negative,negative,arrowup,1,3698
2,0,7,cue,12,6,6,separated,random,large,color,#660fbd,positive,negative,NA,NA,NA
2,0,7,judge,12,6,6,separated,random,large,color,NA,positive,negative,arrowup,1,1733
2,0,8,cue,12,6,6,separated,random,large,color,#e21212,negative,negative,NA,NA,NA
2,0,8,judge,12,6,6,separated,random,large,color,NA,negative,negative,arrowup,1,3967
2,0,9,cue,12,6,6,separated,random,large,color,#52970c,negative,negative,NA,NA,NA
2,0,9,judge,12,6,6,separated,random,large,color,NA,negative,negative,arrowdown,1,2731
2,0,10,cue,12,6,6,separated,random,large,color,#660fbd,neutral,negative,NA,NA,NA
2,0,10,judge,12,6,6,separated,random,large,color,NA,neutral,negative,arrowdown,1,2094
2,0,11,cue,12,6,6,separated,random,large,color,#ecb718,positive,negative,NA,NA,NA
2,0,11,judge,12,6,6,separated,random,large,color,NA,positive,negative,arrowdown,1,2307
2,0,12,cue,12,6,6,separated,random,large,color,#ecb718,negative,negative,NA,NA,NA
2,0,12,judge,12,6,6,separated,random,large,color,NA,negative,negative,arrowdown,1,1693
2,0,13,cue,12,6,6,separated,random,large,color,#2b5bee,negative,negative,NA,NA,NA
2,0,13,judge,12,6,6,separated,random,large,color,NA,negative,negative,arrowup,1,3991
2,0,14,cue,12,6,6,separated,random,large,color,#2b5bee,negative,negative,NA,NA,NA
2,0,14,judge,12,6,6,separated,random,large,color,NA,negative,negative,arrowdown,1,4211
2,0,15,cue,12,6,6,separated,random,large,color,#e21212,negative,negative,NA,NA,NA
2,0,15,judge,12,6,6,separated,random,large,color,NA,negative,negative,arrowdown,1,4426
2,0,16,cue,12,6,6,separated,random,large,color,#e21212,negative,negative,NA,NA,NA
2,0,16,judge,12,6,6,separated,random,large,color,NA,negative,negative,arrowdown,1,6078
2,0,17,cue,12,6,6,separated,random,large,color,#52970c,negative,negative,NA,NA,NA
2,0,17,judge,12,6,6,separated,random,large,color,NA,negative,negative,arrowup,1,1624
2,0,18,cue,12,6,6,separated,random,large,color,#0eaaaa,negative,negative,NA,NA,NA
2,0,18,judge,12,6,6,separated,random,large,color,NA,negative,negative,arrowup,1,1568
2,0,19,cue,12,6,6,separated,random,large,color,#52970c,negative,negative,NA,NA,NA
2,0,19,judge,12,6,6,separated,random,large,color,NA,negative,negative,arrowup,1,2419
2,0,20,cue,12,6,6,separated,random,large,color,#52970c,negative,negative,NA,NA,NA
2,0,20,judge,12,6,6,separated,random,large,color,NA,negative,negative,arrowup,1,1708
2,0,21,cue,12,6,6,separated,random,large,color,#e713b2,negative,negative,NA,NA,NA
2,0,21,judge,12,6,6,separated,random,large,color,NA,negative,negative,arrowdown,0,1773
2,0,22,cue,12,6,6,separated,random,large,color,#52970c,negative,negative,NA,NA,NA
2,0,22,judge,12,6,6,separated,random,large,color,NA,negative,negative,arrowdown,1,2560
2,0,23,cue,12,6,6,separated,random,large,color,#e21212,neutral,negative,NA,NA,NA
2,0,23,judge,12,6,6,separated,random,large,color,NA,neutral,negative,arrowdown,1,2544
2,0,24,cue,12,6,6,separated,random,large,color,#e21212,positive,negative,NA,NA,NA
2,0,24,judge,12,6,6,separated,random,large,color,NA,positive,negative,arrowdown,1,1337
2,0,25,cue,12,6,6,separated,random,large,color,#52970c,negative,negative,NA,NA,NA
2,0,25,judge,12,6,6,separated,random,large,color,NA,negative,negative,arrowdown,1,5136
2,0,26,cue,12,6,6,separated,random,large,color,#660fbd,negative,negative,NA,NA,NA
2,0,26,judge,12,6,6,separated,random,large,color,NA,negative,negative,arrowdown,1,3083
2,0,27,cue,12,6,6,separated,random,large,color,#0eaaaa,negative,negative,NA,NA,NA
2,0,27,judge,12,6,6,separated,random,large,color,NA,negative,negative,arrowdown,1,6185
2,0,28,cue,12,6,6,separated,random,large,color,#0eaaaa,negative,negative,NA,NA,NA
2,0,28,judge,12,6,6,separated,random,large,color,NA,negative,negative,arrowdown,1,1704
2,0,29,cue,12,6,6,separated,random,large,color,#660fbd,negative,negative,NA,NA,NA
2,0,29,judge,12,6,6,separated,random,large,color,NA,negative,negative,arrowup,1,1267
2,0,30,cue,12,6,6,separated,random,large,color,#ecb718,negative,negative,NA,NA,NA
2,0,30,judge,12,6,6,separated,random,large,color,NA,negative,negative,arrowup,1,2312
2,0,31,cue,12,6,6,separated,random,large,color,#e713b2,negative,negative,NA,NA,NA
2,0,31,judge,12,6,6,separated,random,large,color,NA,negative,negative,arrowdown,1,1957
2,0,32,cue,12,6,6,separated,random,large,color,#0eaaaa,negative,negative,NA,NA,NA
2,0,32,judge,12,6,6,separated,random,large,color,NA,negative,negative,arrowdown,1,2026
2,0,33,cue,12,6,6,separated,random,large,color,#ecb718,negative,negative,NA,NA,NA
2,0,33,judge,12,6,6,separated,random,large,color,NA,negative,negative,arrowdown,1,2715
2,0,34,cue,12,6,6,separated,random,large,color,#e713b2,negative,negative,NA,NA,NA
2,0,34,judge,12,6,6,separated,random,large,color,NA,negative,negative,arrowup,1,1238
2,0,35,cue,12,6,6,separated,random,large,color,#660fbd,negative,negative,NA,NA,NA
2,0,35,judge,12,6,6,separated,random,large,color,NA,negative,negative,arrowdown,1,1668
2,0,36,cue,12,6,6,separated,random,large,color,#ecb718,neutral,negative,NA,NA,NA
2,0,36,judge,12,6,6,separated,random,large,color,NA,neutral,negative,arrowup,1,4162
2,0,37,cue,12,6,6,separated,random,large,color,#e21212,negative,negative,NA,NA,NA
2,0,37,judge,12,6,6,separated,random,large,color,NA,negative,negative,arrowup,1,947
2,0,38,cue,12,6,6,separated,random,large,color,#52970c,neutral,negative,NA,NA,NA
2,0,38,judge,12,6,6,separated,random,large,color,NA,neutral,negative,arrowdown,1,3447
2,0,39,cue,12,6,6,separated,random,large,color,#2b5bee,negative,negative,NA,NA,NA
2,0,39,judge,12,6,6,separated,random,large,color,NA,negative,negative,arrowdown,1,3205
2,0,40,cue,12,6,6,separated,random,large,color,#0eaaaa,neutral,negative,NA,NA,NA
2,0,40,judge,12,6,6,separated,random,large,color,NA,neutral,negative,arrowup,1,2661
2,0,41,cue,12,6,6,separated,random,large,color,#52970c,neutral,negative,NA,NA,NA
2,0,41,judge,12,6,6,separated,random,large,color,NA,neutral,negative,arrowup,1,4216
2,0,42,cue,12,6,6,separated,random,large,color,#e21212,negative,negative,NA,NA,NA
2,0,42,judge,12,6,6,separated,random,large,color,NA,negative,negative,arrowup,1,4916
2,0,43,cue,12,6,6,separated,random,large,color,#e713b2,negative,negative,NA,NA,NA
2,0,43,judge,12,6,6,separated,random,large,color,NA,negative,negative,arrowup,1,1003
2,0,44,cue,12,6,6,separated,random,large,color,#e21212,positive,negative,NA,NA,NA
2,0,44,judge,12,6,6,separated,random,large,color,NA,positive,negative,arrowup,1,2646
2,0,45,cue,12,6,6,separated,random,large,color,#ecb718,negative,negative,NA,NA,NA
2,0,45,judge,12,6,6,separated,random,large,color,NA,negative,negative,arrowdown,1,3581
2,0,46,cue,12,6,6,separated,random,large,color,#2b5bee,positive,negative,NA,NA,NA
2,0,46,judge,12,6,6,separated,random,large,color,NA,positive,negative,arrowup,1,1741
2,0,47,cue,12,6,6,separated,random,large,color,#660fbd,negative,negative,NA,NA,NA
2,0,47,judge,12,6,6,separated,random,large,color,NA,negative,negative,arrowup,1,2767
2,0,48,cue,12,6,6,separated,random,large,color,#ecb718,negative,negative,NA,NA,NA
2,0,48,judge,12,6,6,separated,random,large,color,NA,negative,negative,arrowdown,1,5022
2,0,49,cue,12,6,6,separated,random,large,color,#ecb718,negative,negative,NA,NA,NA
2,0,49,judge,12,6,6,separated,random,large,color,NA,negative,negative,arrowup,1,2363
2,0,50,cue,12,6,6,separated,random,large,color,#e21212,negative,negative,NA,NA,NA
2,0,50,judge,12,6,6,separated,random,large,color,NA,negative,negative,arrowdown,1,3392
2,0,51,cue,12,6,6,separated,random,large,color,#2b5bee,neutral,negative,NA,NA,NA
2,0,51,judge,12,6,6,separated,random,large,color,NA,neutral,negative,arrowdown,1,951
2,0,52,cue,12,6,6,separated,random,large,color,#ecb718,negative,negative,NA,NA,NA
2,0,52,judge,12,6,6,separated,random,large,color,NA,negative,negative,arrowdown,1,2519
2,0,53,cue,12,6,6,separated,random,large,color,#ecb718,negative,negative,NA,NA,NA
2,0,53,judge,12,6,6,separated,random,large,color,NA,negative,negative,arrowdown,1,2422
2,0,54,cue,12,6,6,separated,random,large,color,#52970c,positive,negative,NA,NA,NA
2,0,54,judge,12,6,6,separated,random,large,color,NA,positive,negative,arrowup,1,1993
2,0,55,cue,12,6,6,separated,random,large,color,#660fbd,neutral,negative,NA,NA,NA
2,0,55,judge,12,6,6,separated,random,large,color,NA,neutral,negative,arrowup,1,2774
2,0,56,cue,12,6,6,separated,random,large,color,#52970c,positive,negative,NA,NA,NA
2,0,56,judge,12,6,6,separated,random,large,color,NA,positive,negative,arrowup,1,1982
2,0,57,cue,12,6,6,separated,random,large,color,#660fbd,negative,negative,NA,NA,NA
2,0,57,judge,12,6,6,separated,random,large,color,NA,negative,negative,arrowdown,1,4062
2,0,58,cue,12,6,6,separated,random,large,color,#e21212,negative,negative,NA,NA,NA
2,0,58,judge,12,6,6,separated,random,large,color,NA,negative,negative,arrowup,1,2077
2,0,59,cue,12,6,6,separated,random,large,color,#52970c,neutral,negative,NA,NA,NA
2,0,59,judge,12,6,6,separated,random,large,color,NA,neutral,negative,arrowdown,1,2892
2,0,60,cue,12,6,6,separated,random,large,color,#e21212,negative,negative,NA,NA,NA
2,0,60,judge,12,6,6,separated,random,large,color,NA,negative,negative,arrowdown,0,2155
2,0,61,cue,12,6,6,separated,random,large,color,#52970c,negative,negative,NA,NA,NA
2,0,61,judge,12,6,6,separated,random,large,color,NA,negative,negative,arrowdown,1,1613
2,0,62,cue,12,6,6,separated,random,large,color,#52970c,negative,negative,NA,NA,NA
2,0,62,judge,12,6,6,separated,random,large,color,NA,negative,negative,arrowup,0,1759
2,0,63,cue,12,6,6,separated,random,large,color,#660fbd,negative,negative,NA,NA,NA
2,0,63,judge,12,6,6,separated,random,large,color,NA,negative,negative,arrowdown,1,3129
2,0,64,cue,12,6,6,separated,random,large,color,#660fbd,negative,negative,NA,NA,NA
2,0,64,judge,12,6,6,separated,random,large,color,NA,negative,negative,arrowdown,0,1771
2,0,65,cue,12,6,6,separated,random,large,color,#660fbd,negative,negative,NA,NA,NA
2,0,65,judge,12,6,6,separated,random,large,color,NA,negative,negative,arrowdown,1,2282
2,0,66,cue,12,6,6,separated,random,large,color,#52970c,negative,negative,NA,NA,NA
2,0,66,judge,12,6,6,separated,random,large,color,NA,negative,negative,arrowdown,1,1250
2,0,67,cue,12,6,6,separated,random,large,color,#52970c,negative,negative,NA,NA,NA
2,0,67,judge,12,6,6,separated,random,large,color,NA,negative,negative,arrowdown,1,2248
2,0,68,cue,12,6,6,separated,random,large,color,#660fbd,positive,negative,NA,NA,NA
2,0,68,judge,12,6,6,separated,random,large,color,NA,positive,negative,arrowup,1,4171
2,0,69,cue,12,6,6,separated,random,large,color,#ecb718,negative,negative,NA,NA,NA
2,0,69,judge,12,6,6,separated,random,large,color,NA,negative,negative,arrowdown,1,2037
2,0,70,cue,12,6,6,separated,random,large,color,#e713b2,negative,negative,NA,NA,NA
2,0,70,judge,12,6,6,separated,random,large,color,NA,negative,negative,arrowup,1,1917
2,0,71,cue,12,6,6,separated,random,large,color,#52970c,positive,negative,NA,NA,NA
2,0,71,judge,12,6,6,separated,random,large,color,NA,positive,negative,arrowdown,1,1138
2,0,72,cue,12,6,6,separated,random,large,color,#e21212,neutral,negative,NA,NA,NA
2,0,72,judge,12,6,6,separated,random,large,color,NA,neutral,negative,arrowdown,1,1256
2,0,73,cue,12,6,6,separated,random,large,color,#e713b2,neutral,negative,NA,NA,NA
2,0,73,judge,12,6,6,separated,random,large,color,NA,neutral,negative,arrowup,1,3138
2,0,74,cue,12,6,6,separated,random,large,color,#e21212,negative,negative,NA,NA,NA
2,0,74,judge,12,6,6,separated,random,large,color,NA,negative,negative,arrowdown,1,1367
2,0,75,cue,12,6,6,separated,random,large,color,#2b5bee,positive,negative,NA,NA,NA
2,0,75,judge,12,6,6,separated,random,large,color,NA,positive,negative,arrowup,1,2348
2,0,76,cue,12,6,6,separated,random,large,color,#e713b2,negative,negative,NA,NA,NA
2,0,76,judge,12,6,6,separated,random,large,color,NA,negative,negative,arrowup,1,2090
2,0,77,cue,12,6,6,separated,random,large,color,#660fbd,positive,negative,NA,NA,NA
2,0,77,judge,12,6,6,separated,random,large,color,NA,positive,negative,arrowup,1,1020
2,0,78,cue,12,6,6,separated,random,large,color,#ecb718,positive,negative,NA,NA,NA
2,0,78,judge,12,6,6,separated,random,large,color,NA,positive,negative,arrowup,1,2034
2,0,79,cue,12,6,6,separated,random,large,color,#660fbd,negative,negative,NA,NA,NA
2,0,79,judge,12,6,6,separated,random,large,color,NA,negative,negative,arrowdown,1,1603
2,0,80,cue,12,6,6,separated,random,large,color,#ecb718,negative,negative,NA,NA,NA
2,0,80,judge,12,6,6,separated,random,large,color,NA,negative,negative,arrowdown,1,2323
2,0,81,cue,12,6,6,separated,random,large,color,#660fbd,negative,negative,NA,NA,NA
2,0,81,judge,12,6,6,separated,random,large,color,NA,negative,negative,arrowup,1,1474
2,0,82,cue,12,6,6,separated,random,large,color,#0eaaaa,negative,negative,NA,NA,NA
2,0,82,judge,12,6,6,separated,random,large,color,NA,negative,negative,arrowdown,1,1464
2,0,83,cue,12,6,6,separated,random,large,color,#e713b2,negative,negative,NA,NA,NA
2,0,83,judge,12,6,6,separated,random,large,color,NA,negative,negative,arrowdown,1,1136
2,0,84,cue,12,6,6,separated,random,large,color,#52970c,negative,negative,NA,NA,NA
2,0,84,judge,12,6,6,separated,random,large,color,NA,negative,negative,arrowup,1,1468
2,0,85,cue,12,6,6,separated,random,large,color,#0eaaaa,positive,negative,NA,NA,NA
2,0,85,judge,12,6,6,separated,random,large,color,NA,positive,negative,arrowup,1,1928
2,0,86,cue,12,6,6,separated,random,large,color,#660fbd,positive,negative,NA,NA,NA
2,0,86,judge,12,6,6,separated,random,large,color,NA,positive,negative,arrowdown,1,1864
2,0,87,cue,12,6,6,separated,random,large,color,#0eaaaa,negative,negative,NA,NA,NA
2,0,87,judge,12,6,6,separated,random,large,color,NA,negative,negative,arrowdown,1,1784
2,0,88,cue,12,6,6,separated,random,large,color,#e21212,neutral,negative,NA,NA,NA
2,0,88,judge,12,6,6,separated,random,large,color,NA,neutral,negative,arrowdown,1,3364
2,0,89,cue,12,6,6,separated,random,large,color,#ecb718,positive,negative,NA,NA,NA
2,0,89,judge,12,6,6,separated,random,large,color,NA,positive,negative,arrowdown,1,2227
2,0,90,cue,12,6,6,separated,random,large,color,#52970c,negative,negative,NA,NA,NA
2,0,90,judge,12,6,6,separated,random,large,color,NA,negative,negative,arrowdown,1,1520
2,0,91,cue,12,6,6,separated,random,large,color,#e21212,negative,negative,NA,NA,NA
2,0,91,judge,12,6,6,separated,random,large,color,NA,negative,negative,arrowdown,0,2069
2,0,92,cue,12,6,6,separated,random,large,color,#e713b2,negative,negative,NA,NA,NA
2,0,92,judge,12,6,6,separated,random,large,color,NA,negative,negative,arrowup,1,2279
2,0,93,cue,12,6,6,separated,random,large,color,#e713b2,negative,negative,NA,NA,NA
2,0,93,judge,12,6,6,separated,random,large,color,NA,negative,negative,arrowup,1,1650
2,0,94,cue,12,6,6,separated,random,large,color,#0eaaaa,negative,negative,NA,NA,NA
2,0,94,judge,12,6,6,separated,random,large,color,NA,negative,negative,arrowdown,1,901
2,0,95,cue,12,6,6,separated,random,large,color,#0eaaaa,neutral,negative,NA,NA,NA
2,0,95,judge,12,6,6,separated,random,large,color,NA,neutral,negative,arrowup,1,1221
2,0,96,cue,12,6,6,separated,random,large,color,#0eaaaa,negative,negative,NA,NA,NA
2,0,96,judge,12,6,6,separated,random,large,color,NA,negative,negative,arrowdown,1,917
2,0,97,cue,12,6,6,separated,random,large,color,#e21212,positive,negative,NA,NA,NA
2,0,97,judge,12,6,6,separated,random,large,color,NA,positive,negative,arrowup,1,3162
2,0,98,cue,12,6,6,separated,random,large,color,#ecb718,neutral,negative,NA,NA,NA
2,0,98,judge,12,6,6,separated,random,large,color,NA,neutral,negative,arrowdown,1,3165
2,0,99,cue,12,6,6,separated,random,large,color,#e713b2,negative,negative,NA,NA,NA
2,0,99,judge,12,6,6,separated,random,large,color,NA,negative,negative,arrowup,1,1162
2,0,100,cue,12,6,6,separated,random,large,color,#52970c,negative,negative,NA,NA,NA
2,0,100,judge,12,6,6,separated,random,large,color,NA,negative,negative,arrowup,1,1094
2,0,101,cue,12,6,6,separated,random,large,color,#ecb718,negative,negative,NA,NA,NA
2,0,101,judge,12,6,6,separated,random,large,color,NA,negative,negative,arrowdown,1,4716
2,0,102,cue,12,6,6,separated,random,large,color,#52970c,negative,negative,NA,NA,NA
2,0,102,judge,12,6,6,separated,random,large,color,NA,negative,negative,arrowdown,1,2684
2,0,103,cue,12,6,6,separated,random,large,color,#660fbd,positive,negative,NA,NA,NA
2,0,103,judge,12,6,6,separated,random,large,color,NA,positive,negative,arrowdown,1,1538
2,0,104,cue,12,6,6,separated,random,large,color,#660fbd,negative,negative,NA,NA,NA
2,0,104,judge,12,6,6,separated,random,large,color,NA,negative,negative,arrowdown,1,1339
2,0,105,cue,12,6,6,separated,random,large,color,#e713b2,negative,negative,NA,NA,NA
2,0,105,judge,12,6,6,separated,random,large,color,NA,negative,negative,arrowdown,1,1590
2,0,106,cue,12,6,6,separated,random,large,color,#e21212,positive,negative,NA,NA,NA
2,0,106,judge,12,6,6,separated,random,large,color,NA,positive,negative,arrowup,0,1176
2,0,107,cue,12,6,6,separated,random,large,color,#e713b2,neutral,negative,NA,NA,NA
2,0,107,judge,12,6,6,separated,random,large,color,NA,neutral,negative,arrowup,1,1080
2,0,108,cue,12,6,6,separated,random,large,color,#52970c,negative,negative,NA,NA,NA
2,0,108,judge,12,6,6,separated,random,large,color,NA,negative,negative,arrowup,0,2115
2,0,109,cue,12,6,6,separated,random,large,color,#ecb718,negative,negative,NA,NA,NA
2,0,109,judge,12,6,6,separated,random,large,color,NA,negative,negative,arrowup,1,2145
2,0,110,cue,12,6,6,separated,random,large,color,#660fbd,negative,negative,NA,NA,NA
2,0,110,judge,12,6,6,separated,random,large,color,NA,negative,negative,arrowdown,1,1991
2,0,111,cue,12,6,6,separated,random,large,color,#e713b2,negative,negative,NA,NA,NA
2,0,111,judge,12,6,6,separated,random,large,color,NA,negative,negative,arrowdown,1,2485
2,0,112,cue,12,6,6,separated,random,large,color,#e713b2,negative,negative,NA,NA,NA
2,0,112,judge,12,6,6,separated,random,large,color,NA,negative,negative,arrowup,1,3419
2,0,113,cue,12,6,6,separated,random,large,color,#e713b2,negative,negative,NA,NA,NA
2,0,113,judge,12,6,6,separated,random,large,color,NA,negative,negative,arrowdown,1,1813
2,0,114,cue,12,6,6,separated,random,large,color,#2b5bee,negative,negative,NA,NA,NA
2,0,114,judge,12,6,6,separated,random,large,color,NA,negative,negative,arrowup,1,1074
2,0,115,cue,12,6,6,separated,random,large,color,#2b5bee,neutral,negative,NA,NA,NA
2,0,115,judge,12,6,6,separated,random,large,color,NA,neutral,negative,arrowup,1,3318
2,0,116,cue,12,6,6,separated,random,large,color,#ecb718,negative,negative,NA,NA,NA
2,0,116,judge,12,6,6,separated,random,large,color,NA,negative,negative,arrowdown,1,2407
2,0,117,cue,12,6,6,separated,random,large,color,#660fbd,negative,negative,NA,NA,NA
2,0,117,judge,12,6,6,separated,random,large,color,NA,negative,negative,arrowdown,1,2309
2,0,118,cue,12,6,6,separated,random,large,color,#0eaaaa,negative,negative,NA,NA,NA
2,0,118,judge,12,6,6,separated,random,large,color,NA,negative,negative,arrowdown,1,1435
2,0,119,cue,12,6,6,separated,random,large,color,#ecb718,negative,negative,NA,NA,NA
2,0,119,judge,12,6,6,separated,random,large,color,NA,negative,negative,arrowup,1,1498
2,0,120,cue,12,6,6,separated,random,large,color,#e21212,negative,negative,NA,NA,NA
2,0,120,judge,12,6,6,separated,random,large,color,NA,negative,negative,arrowdown,1,1666
2,0,121,cue,12,6,6,separated,random,large,color,#660fbd,negative,negative,NA,NA,NA
2,0,121,judge,12,6,6,separated,random,large,color,NA,negative,negative,arrowup,1,922
2,0,122,cue,12,6,6,separated,random,large,color,#52970c,neutral,negative,NA,NA,NA
2,0,122,judge,12,6,6,separated,random,large,color,NA,neutral,negative,arrowdown,1,2964
2,0,123,cue,12,6,6,separated,random,large,color,#ecb718,negative,negative,NA,NA,NA
2,0,123,judge,12,6,6,separated,random,large,color,NA,negative,negative,arrowdown,1,5219
2,0,124,cue,12,6,6,separated,random,large,color,#0eaaaa,negative,negative,NA,NA,NA
2,0,124,judge,12,6,6,separated,random,large,color,NA,negative,negative,arrowdown,1,1350
2,0,125,cue,12,6,6,separated,random,large,color,#ecb718,neutral,negative,NA,NA,NA
2,0,125,judge,12,6,6,separated,random,large,color,NA,neutral,negative,arrowup,0,933
2,0,126,cue,12,6,6,separated,random,large,color,#660fbd,negative,negative,NA,NA,NA
2,0,126,judge,12,6,6,separated,random,large,color,NA,negative,negative,arrowdown,1,1982
2,0,127,cue,12,6,6,separated,random,large,color,#2b5bee,positive,negative,NA,NA,NA
2,0,127,judge,12,6,6,separated,random,large,color,NA,positive,negative,arrowup,1,2003
2,0,128,cue,12,6,6,separated,random,large,color,#52970c,negative,negative,NA,NA,NA
2,0,128,judge,12,6,6,separated,random,large,color,NA,negative,negative,arrowdown,1,2805
2,0,129,cue,12,6,6,separated,random,large,color,#660fbd,negative,negative,NA,NA,NA
2,0,129,judge,12,6,6,separated,random,large,color,NA,negative,negative,arrowdown,1,1959
2,0,130,cue,12,6,6,separated,random,large,color,#660fbd,neutral,negative,NA,NA,NA
2,0,130,judge,12,6,6,separated,random,large,color,NA,neutral,negative,arrowdown,1,814
2,0,131,cue,12,6,6,separated,random,large,color,#660fbd,negative,negative,NA,NA,NA
2,0,131,judge,12,6,6,separated,random,large,color,NA,negative,negative,arrowdown,1,1877
2,0,132,cue,12,6,6,separated,random,large,color,#660fbd,negative,negative,NA,NA,NA
2,0,132,judge,12,6,6,separated,random,large,color,NA,negative,negative,arrowup,1,1145
2,0,133,cue,12,6,6,separated,random,large,color,#2b5bee,neutral,negative,NA,NA,NA
2,0,133,judge,12,6,6,separated,random,large,color,NA,neutral,negative,arrowup,1,3591
2,0,134,cue,12,6,6,separated,random,large,color,#660fbd,positive,negative,NA,NA,NA
2,0,134,judge,12,6,6,separated,random,large,color,NA,positive,negative,arrowdown,1,3117
2,0,135,cue,12,6,6,separated,random,large,color,#660fbd,neutral,negative,NA,NA,NA
2,0,135,judge,12,6,6,separated,random,large,color,NA,neutral,negative,arrowdown,1,3316
2,0,136,cue,12,6,6,separated,random,large,color,#2b5bee,negative,negative,NA,NA,NA
2,0,136,judge,12,6,6,separated,random,large,color,NA,negative,negative,arrowup,1,2183
2,0,137,cue,12,6,6,separated,random,large,color,#52970c,negative,negative,NA,NA,NA
2,0,137,judge,12,6,6,separated,random,large,color,NA,negative,negative,arrowup,1,2702
2,0,138,cue,12,6,6,separated,random,large,color,#ecb718,negative,negative,NA,NA,NA
2,0,138,judge,12,6,6,separated,random,large,color,NA,negative,negative,arrowdown,1,1638
2,0,139,cue,12,6,6,separated,random,large,color,#e21212,negative,negative,NA,NA,NA
2,0,139,judge,12,6,6,separated,random,large,color,NA,negative,negative,arrowup,1,1769
2,0,140,cue,12,6,6,separated,random,large,color,#e713b2,negative,negative,NA,NA,NA
2,0,140,judge,12,6,6,separated,random,large,color,NA,negative,negative,arrowup,1,1985
2,0,141,cue,12,6,6,separated,random,large,color,#2b5bee,negative,negative,NA,NA,NA
2,0,141,judge,12,6,6,separated,random,large,color,NA,negative,negative,arrowdown,1,2473
2,0,142,cue,12,6,6,separated,random,large,color,#52970c,negative,negative,NA,NA,NA
2,0,142,judge,12,6,6,separated,random,large,color,NA,negative,negative,arrowdown,1,1786
2,0,143,cue,12,6,6,separated,random,large,color,#0eaaaa,negative,negative,NA,NA,NA
2,0,143,judge,12,6,6,separated,random,large,color,NA,negative,negative,arrowup,1,2070
2,0,144,cue,12,6,6,separated,random,large,color,#e713b2,positive,negative,NA,NA,NA
2,0,144,judge,12,6,6,separated,random,large,color,NA,positive,negative,arrowdown,1,1455
2,0,145,cue,12,6,6,separated,random,large,color,#660fbd,negative,negative,NA,NA,NA
2,0,145,judge,12,6,6,separated,random,large,color,NA,negative,negative,arrowdown,1,2184
2,0,146,cue,12,6,6,separated,random,large,color,#ecb718,negative,negative,NA,NA,NA
2,0,146,judge,12,6,6,separated,random,large,color,NA,negative,negative,arrowup,1,2296
2,0,147,cue,12,6,6,separated,random,large,color,#660fbd,positive,negative,NA,NA,NA
2,0,147,judge,12,6,6,separated,random,large,color,NA,positive,negative,arrowdown,1,2694
2,0,148,cue,12,6,6,separated,random,large,color,#e21212,negative,negative,NA,NA,NA
2,0,148,judge,12,6,6,separated,random,large,color,NA,negative,negative,arrowup,1,4418
2,0,149,cue,12,6,6,separated,random,large,color,#0eaaaa,negative,negative,NA,NA,NA
2,0,149,judge,12,6,6,separated,random,large,color,NA,negative,negative,arrowdown,1,1647
2,0,150,cue,12,6,6,separated,random,large,color,#52970c,negative,negative,NA,NA,NA
2,0,150,judge,12,6,6,separated,random,large,color,NA,negative,negative,arrowdown,1,3692
2,0,151,cue,12,6,6,separated,random,large,color,#660fbd,negative,negative,NA,NA,NA
2,0,151,judge,12,6,6,separated,random,large,color,NA,negative,negative,arrowdown,1,1406
2,0,152,cue,12,6,6,separated,random,large,color,#e21212,neutral,negative,NA,NA,NA
2,0,152,judge,12,6,6,separated,random,large,color,NA,neutral,negative,arrowdown,1,2746
2,0,153,cue,12,6,6,separated,random,large,color,#ecb718,negative,negative,NA,NA,NA
2,0,153,judge,12,6,6,separated,random,large,color,NA,negative,negative,arrowdown,1,1658
2,0,154,cue,12,6,6,separated,random,large,color,#52970c,negative,negative,NA,NA,NA
2,0,154,judge,12,6,6,separated,random,large,color,NA,negative,negative,arrowdown,1,2536
2,0,155,cue,12,6,6,separated,random,large,color,#660fbd,negative,negative,NA,NA,NA
2,0,155,judge,12,6,6,separated,random,large,color,NA,negative,negative,arrowup,1,2097
2,0,156,cue,12,6,6,separated,random,large,color,#52970c,negative,negative,NA,NA,NA
2,0,156,judge,12,6,6,separated,random,large,color,NA,negative,negative,arrowdown,1,2541
2,0,157,cue,12,6,6,separated,random,large,color,#660fbd,negative,negative,NA,NA,NA
2,0,157,judge,12,6,6,separated,random,large,color,NA,negative,negative,arrowup,1,2252
2,0,158,cue,12,6,6,separated,random,large,color,#660fbd,negative,negative,NA,NA,NA
2,0,158,judge,12,6,6,separated,random,large,color,NA,negative,negative,arrowup,1,3470
2,0,159,cue,12,6,6,separated,random,large,color,#2b5bee,negative,negative,NA,NA,NA
2,0,159,judge,12,6,6,separated,random,large,color,NA,negative,negative,arrowup,1,1854
2,0,160,cue,12,6,6,separated,random,large,color,#660fbd,negative,negative,NA,NA,NA
2,0,160,judge,12,6,6,separated,random,large,color,NA,negative,negative,arrowup,1,1638
2,0,161,cue,12,6,6,separated,random,large,color,#0eaaaa,negative,negative,NA,NA,NA
2,0,161,judge,12,6,6,separated,random,large,color,NA,negative,negative,arrowdown,1,3155
2,0,162,cue,12,6,6,separated,random,large,color,#52970c,negative,negative,NA,NA,NA
2,0,162,judge,12,6,6,separated,random,large,color,NA,negative,negative,arrowdown,1,1649
2,0,163,cue,12,6,6,separated,random,large,color,#660fbd,negative,negative,NA,NA,NA
2,0,163,judge,12,6,6,separated,random,large,color,NA,negative,negative,arrowdown,1,1087
2,0,164,cue,12,6,6,separated,random,large,color,#0eaaaa,negative,negative,NA,NA,NA
2,0,164,judge,12,6,6,separated,random,large,color,NA,negative,negative,arrowup,1,1311
2,0,165,cue,12,6,6,separated,random,large,color,#ecb718,neutral,negative,NA,NA,NA
2,0,165,judge,12,6,6,separated,random,large,color,NA,neutral,negative,arrowup,1,1432
2,0,166,cue,12,6,6,separated,random,large,color,#ecb718,negative,negative,NA,NA,NA
2,0,166,judge,12,6,6,separated,random,large,color,NA,negative,negative,arrowdown,1,1032
2,0,167,cue,12,6,6,separated,random,large,color,#52970c,negative,negative,NA,NA,NA
2,0,167,judge,12,6,6,separated,random,large,color,NA,negative,negative,arrowup,1,1586
2,0,168,cue,12,6,6,separated,random,large,color,#e21212,negative,negative,NA,NA,NA
2,0,168,judge,12,6,6,separated,random,large,color,NA,negative,negative,arrowup,0,1272
2,0,169,cue,12,6,6,separated,random,large,color,#ecb718,negative,negative,NA,NA,NA
2,0,169,judge,12,6,6,separated,random,large,color,NA,negative,negative,arrowup,1,2560
2,0,170,cue,12,6,6,separated,random,large,color,#e713b2,negative,negative,NA,NA,NA
2,0,170,judge,12,6,6,separated,random,large,color,NA,negative,negative,arrowup,1,1886
2,0,171,cue,12,6,6,separated,random,large,color,#e713b2,negative,negative,NA,NA,NA
2,0,171,judge,12,6,6,separated,random,large,color,NA,negative,negative,arrowdown,1,1434
2,0,172,cue,12,6,6,separated,random,large,color,#660fbd,negative,negative,NA,NA,NA
2,0,172,judge,12,6,6,separated,random,large,color,NA,negative,negative,arrowdown,1,1225
2,0,173,cue,12,6,6,separated,random,large,color,#52970c,negative,negative,NA,NA,NA
2,0,173,judge,12,6,6,separated,random,large,color,NA,negative,negative,arrowdown,0,2254
2,0,174,cue,12,6,6,separated,random,large,color,#0eaaaa,neutral,negative,NA,NA,NA
2,0,174,judge,12,6,6,separated,random,large,color,NA,neutral,negative,arrowdown,1,3101
2,0,175,cue,12,6,6,separated,random,large,color,#e21212,positive,negative,NA,NA,NA
2,0,175,judge,12,6,6,separated,random,large,color,NA,positive,negative,arrowup,1,1772
2,0,176,cue,12,6,6,separated,random,large,color,#2b5bee,positive,negative,NA,NA,NA
2,0,176,judge,12,6,6,separated,random,large,color,NA,positive,negative,arrowup,1,2177
2,0,177,cue,12,6,6,separated,random,large,color,#52970c,negative,negative,NA,NA,NA
2,0,177,judge,12,6,6,separated,random,large,color,NA,negative,negative,arrowup,1,2797
2,0,178,cue,12,6,6,separated,random,large,color,#ecb718,positive,negative,NA,NA,NA
2,0,178,judge,12,6,6,separated,random,large,color,NA,positive,negative,arrowup,1,1663
2,0,179,cue,12,6,6,separated,random,large,color,#e713b2,neutral,negative,NA,NA,NA
2,0,179,judge,12,6,6,separated,random,large,color,NA,neutral,negative,arrowup,1,3534
2,0,180,cue,12,6,6,separated,random,large,color,#52970c,negative,negative,NA,NA,NA
2,0,180,judge,12,6,6,separated,random,large,color,NA,negative,negative,arrowup,1,3077
2,0,181,cue,12,6,6,separated,random,large,color,#e21212,negative,negative,NA,NA,NA
2,0,181,judge,12,6,6,separated,random,large,color,NA,negative,negative,arrowdown,1,867
2,0,182,cue,12,6,6,separated,random,large,color,#e21212,negative,negative,NA,NA,NA
2,0,182,judge,12,6,6,separated,random,large,color,NA,negative,negative,arrowup,1,2034
2,0,183,cue,12,6,6,separated,random,large,color,#660fbd,negative,negative,NA,NA,NA
2,0,183,judge,12,6,6,separated,random,large,color,NA,negative,negative,arrowup,0,1925
2,0,184,cue,12,6,6,separated,random,large,color,#e713b2,neutral,negative,NA,NA,NA
2,0,184,judge,12,6,6,separated,random,large,color,NA,neutral,negative,arrowdown,1,1802
2,0,185,cue,12,6,6,separated,random,large,color,#0eaaaa,negative,negative,NA,NA,NA
2,0,185,judge,12,6,6,separated,random,large,color,NA,negative,negative,arrowup,1,1879
2,0,186,cue,12,6,6,separated,random,large,color,#0eaaaa,positive,negative,NA,NA,NA
2,0,186,judge,12,6,6,separated,random,large,color,NA,positive,negative,arrowup,1,1154
2,0,187,cue,12,6,6,separated,random,large,color,#e21212,negative,negative,NA,NA,NA
2,0,187,judge,12,6,6,separated,random,large,color,NA,negative,negative,arrowup,1,3101
2,0,188,cue,12,6,6,separated,random,large,color,#0eaaaa,positive,negative,NA,NA,NA
2,0,188,judge,12,6,6,separated,random,large,color,NA,positive,negative,arrowdown,1,1292
2,1,0,cue,12,6,6,intermixed,random,large,color,#52970c,negative,negative,NA,NA,NA
2,1,0,judge,12,6,6,intermixed,random,large,color,NA,negative,negative,arrowdown,1,3135
2,1,1,cue,12,6,6,intermixed,random,large,color,#e21212,negative,negative,NA,NA,NA
2,1,1,judge,12,6,6,intermixed,random,large,color,NA,negative,negative,arrowup,1,2080
2,1,2,cue,12,6,6,intermixed,random,large,color,#e713b2,negative,negative,NA,NA,NA
2,1,2,judge,12,6,6,intermixed,random,large,color,NA,negative,negative,arrowup,1,1058
2,1,3,cue,12,6,6,intermixed,random,large,color,#e713b2,negative,negative,NA,NA,NA
2,1,3,judge,12,6,6,intermixed,random,large,color,NA,negative,negative,arrowup,1,2241
2,1,4,cue,12,6,6,intermixed,random,large,color,#2b5bee,negative,negative,NA,NA,NA
2,1,4,judge,12,6,6,intermixed,random,large,color,NA,negative,negative,arrowdown,1,3751
2,1,5,cue,12,6,6,intermixed,random,large,color,#e713b2,neutral,negative,NA,NA,NA
2,1,5,judge,12,6,6,intermixed,random,large,color,NA,neutral,negative,arrowup,1,4625
2,1,6,cue,12,6,6,intermixed,random,large,color,#e21212,negative,negative,NA,NA,NA
2,1,6,judge,12,6,6,intermixed,random,large,color,NA,negative,negative,arrowup,1,2192
2,1,7,cue,12,6,6,intermixed,random,large,color,#2b5bee,neutral,negative,NA,NA,NA
2,1,7,judge,12,6,6,intermixed,random,large,color,NA,neutral,negative,arrowup,1,1713
2,1,8,cue,12,6,6,intermixed,random,large,color,#2b5bee,positive,negative,NA,NA,NA
2,1,8,judge,12,6,6,intermixed,random,large,color,NA,positive,negative,arrowdown,1,2024
2,1,9,cue,12,6,6,intermixed,random,large,color,#0eaaaa,negative,negative,NA,NA,NA
2,1,9,judge,12,6,6,intermixed,random,large,color,NA,negative,negative,arrowdown,1,1630
2,1,10,cue,12,6,6,intermixed,random,large,color,#52970c,neutral,negative,NA,NA,NA
2,1,10,judge,12,6,6,intermixed,random,large,color,NA,neutral,negative,arrowdown,0,1807
2,1,11,cue,12,6,6,intermixed,random,large,color,#e713b2,negative,negative,NA,NA,NA
2,1,11,judge,12,6,6,intermixed,random,large,color,NA,negative,negative,arrowup,1,1519
2,1,12,cue,12,6,6,intermixed,random,large,color,#e21212,negative,negative,NA,NA,NA
2,1,12,judge,12,6,6,intermixed,random,large,color,NA,negative,negative,arrowdown,1,5323
2,1,13,cue,12,6,6,intermixed,random,large,color,#52970c,negative,negative,NA,NA,NA
2,1,13,judge,12,6,6,intermixed,random,large,color,NA,negative,negative,arrowdown,1,2037
2,1,14,cue,12,6,6,intermixed,random,large,color,#660fbd,negative,negative,NA,NA,NA
2,1,14,judge,12,6,6,intermixed,random,large,color,NA,negative,negative,arrowdown,1,1980
2,1,15,cue,12,6,6,intermixed,random,large,color,#e713b2,negative,negative,NA,NA,NA
2,1,15,judge,12,6,6,intermixed,random,large,color,NA,negative,negative,arrowup,1,1014
2,1,16,cue,12,6,6,intermixed,random,large,color,#660fbd,negative,negative,NA,NA,NA
2,1,16,judge,12,6,6,intermixed,random,large,color,NA,negative,negative,arrowdown,1,1218
2,1,17,cue,12,6,6,intermixed,random,large,color,#ecb718,neutral,negative,NA,NA,NA
2,1,17,judge,12,6,6,intermixed,random,large,color,NA,neutral,negative,arrowdown,1,2807
2,1,18,cue,12,6,6,intermixed,random,large,color,#ecb718,neutral,negative,NA,NA,NA
2,1,18,judge,12,6,6,intermixed,random,large,color,NA,neutral,negative,arrowdown,1,3442
2,1,19,cue,12,6,6,intermixed,random,large,color,#0eaaaa,negative,negative,NA,NA,NA
2,1,19,judge,12,6,6,intermixed,random,large,color,NA,negative,negative,arrowup,1,1891
2,1,20,cue,12,6,6,intermixed,random,large,color,#e21212,negative,negative,NA,NA,NA
2,1,20,judge,12,6,6,intermixed,random,large,color,NA,negative,negative,arrowup,1,3048
2,1,21,cue,12,6,6,intermixed,random,large,color,#660fbd,negative,negative,NA,NA,NA
2,1,21,judge,12,6,6,intermixed,random,large,color,NA,negative,negative,arrowdown,1,3142
2,1,22,cue,12,6,6,intermixed,random,large,color,#52970c,negative,negative,NA,NA,NA
2,1,22,judge,12,6,6,intermixed,random,large,color,NA,negative,negative,arrowup,1,2211
2,1,23,cue,12,6,6,intermixed,random,large,color,#52970c,negative,negative,NA,NA,NA
2,1,23,judge,12,6,6,intermixed,random,large,color,NA,negative,negative,arrowup,1,1542
2,1,24,cue,12,6,6,intermixed,random,large,color,#e21212,negative,negative,NA,NA,NA
2,1,24,judge,12,6,6,intermixed,random,large,color,NA,negative,negative,arrowdown,1,1335
2,1,25,cue,12,6,6,intermixed,random,large,color,#ecb718,negative,negative,NA,NA,NA
2,1,25,judge,12,6,6,intermixed,random,large,color,NA,negative,negative,arrowdown,1,4378
2,1,26,cue,12,6,6,intermixed,random,large,color,#ecb718,negative,negative,NA,NA,NA
2,1,26,judge,12,6,6,intermixed,random,large,color,NA,negative,negative,arrowup,1,1797
2,1,27,cue,12,6,6,intermixed,random,large,color,#2b5bee,negative,negative,NA,NA,NA
2,1,27,judge,12,6,6,intermixed,random,large,color,NA,negative,negative,arrowup,1,3784
2,1,28,cue,12,6,6,intermixed,random,large,color,#e713b2,negative,negative,NA,NA,NA
2,1,28,judge,12,6,6,intermixed,random,large,color,NA,negative,negative,arrowdown,1,2090
2,1,29,cue,12,6,6,intermixed,random,large,color,#2b5bee,negative,negative,NA,NA,NA
2,1,29,judge,12,6,6,intermixed,random,large,color,NA,negative,negative,arrowdown,1,3552
